trial_type,trial_index,time_elapsed,internal_node_id,success,timeout,failed_images,failed_audio,failed_video,rt,response,stimulus,width,height,webaudio,browser,browser_version,mobile,os,fullscreen,vsync_rate,webcam,microphone,phase,deviceInfo,itemID,stimulus_type,correct_ans,list,content,sound1,sound2
pavlovia,0,3323,0.0-0.0,,,,,,,,,,,,,,,,,,,,,,,,,,,,
preload,1,37239,0.0-1.0,TRUE,FALSE,[],[],[],,,,,,,,,,,,,,,,,,,,,,,
survey-text,2,74304,0.0-2.0,,,,,,37030,"{""participant_name"":""Amanda Layne"",""prolific_ID"":""67df3410b1cbfe307e268c56""}",,,,,,,,,,,,,,,,,,,,,
html-button-response,3,138302,0.0-3.0-0.0,,,,,,63995,0,"
    <h1>
    Before starting the experiment, please adjust the volume.
    </h1>
    <p>
    Please press the ""Play"" button below and adjust the volume while checking until it reaches an appropriate level.
    </p>
    <audio id=""vol-test-stimulus"" src=""stimuli/word/FAS_E1M-LNTW-01-16.wav""></audio>
    <button id=""play-button"">Play</button>
    <p>
    You can play the audio as many times as you like until the volume suits your preference.
    Once you've adjusted the volume to a level that is the easiest to hear and most comfortable for you.
    Press the button below and enter what you heard on the next page.
    This is just to confirm that you can hear the audio clearly, so it's okay if you make a few mistakes.
    </p>
  ",,,,,,,,,,,,,,,,,,,,
survey-text,4,146449,0.0-3.0-1.0,,,,,,8136,"{""vol-word"":""dance""}",,,,,,,,,,,,,,,,,,,,,
fullscreen,5,167319,0.0-4.0,TRUE,,,,,,,,,,,,,,,,,,,,,,,,,,,
browser-check,6,168310,0.0-5.0,,,,,,,,,1600,900,TRUE,chrome,134.0.0,FALSE,Windows 10,TRUE,61.56,FALSE,FALSE,,,,,,,,,
html-button-response,7,170326,0.0-6.0,,,,,,null,null,"
    <h1 style = ""font-size: 60px; width: 100%;"">English Pronunciation Perception Experiment</h1>
    ",,,,,,,,,,,,,,,,,,,,
html-button-response,8,202819,0.0-7.0,,,,,,32491,0,"
    <h1>
    Instructions: What will you do in this experiment?
    </h1>
    <p style=""width:100%"">
    In this experiment, two English audio clips will be played as a pair.

    The content of the audio will be displayed slightly earlier.

    While listening to the pair of audio clips and looking at the content,

    if the pair has different accents, press the <span style=""background-color: yellow;"">[ F ] key</span>, 

    if the pair has the same accent, press the <span style=""background-color: yellow;"">[ J ] key</span> 
    <u>as quickly and accurately as possible</u>

    This experiment will record the accuracy and speed of your judgments on whether the pronunciations are the same or different.
    </p>
    ",,,,,,,,,,,,,,,,,,,,
html-button-response,9,233102,0.0-8.0,,,,,,30281,0,"
    <h1>
    Instructions: What is an accented pronunciation?
    </h1>
    <p>
    Your understanding of the following content is crucial to the results of this experiment, so please read it carefully.

    In this experiment, ""accent"" does not refer to the variations in pronunciation among native speakers. Instead, it refers to the ""foreign accent"" of speakers whose native language is different from English. Although native speakers have many regional pronunciation variations, this study focuses on the differences between native and non-native English speakers, as well as differences among non-native speakers whose native languages differ.

    Therefore, a ""pair of English pronunciations with different accents"" refers to:

    - A pair consisting of a native speaker and a non-native speaker, or
    - A pair of non-native speakers whose native languages are different (e.g., Speaker A whose native language is Language A and Speaker B whose native language is Language B).

    If you understand the above explanation, click the button below to proceed to the instructions on the experiment's procedure.
    </p>
    ",,,,,,,,,,,,,,,,,,,,
html-button-response,10,269017,0.0-9.0,,,,,,35913,0,"
    <h1>
    Instructions: Explanation of the Experiment Procedure
    </h1>
    <p>
    The audio will always play immediately after the fixation point (+) is displayed, so please make sure to focus on the fixation point when it appears.

    This pronunciation perception experiment is expected to take approximately 50 minutes to complete.
    There will be one break point during the experiment.
    Feel free to take a break during this time (e.g., closing your eyes, taking deep breaths, etc.).

    To respond quickly, keep your fingers on the [ F ] and [ J ] keys at all times.
    To help you get familiar with the procedure, there are 12 practice questions prepared.
    When you are ready, click the button below to proceed to the practice session.
    </p>
    ",,,,,,,,,,,,intro,"{""userAgent"":""Mozilla/5.0 (Windows NT 10.0; Win64; x64) AppleWebKit/537.36 (KHTML, like Gecko) Chrome/134.0.0.0 Safari/537.36"",""platform"":""Win32"",""language"":""en-US"",""screenResolution"":""4096x2304"",""windowSize"":""793x765""}",,,,,,,
html-keyboard-response,11,270024,0.0-10.0-0.0,,,,,,null,null,"<h1 style= ""font-size: 50px"">+
    </h1>",,,,,,,,,,,,,,,,,,,,
html-keyboard-response,12,270534,0.0-10.0-1.0,,,,,,null,null,"
            <p style= ""white-space: nowrap;text-align: center; padding: 20px; background-color: lightgray;"">
            The content of this audio is _<strong>They watched the movie.</strong>_ 
            </p>",,,,,,,,,,,,,,,,,,,,
audio-keyboard-response,13,271876,0.0-10.0-2.0,,,,,,null,null,stimuli/FAS_M1M-BKBR-00-01.wav,,,,,,,,,,,,,,,,,,,,
html-keyboard-response,14,272382,0.0-10.0-3.0,,,,,,null,null,"
        <p style= ""white-space: nowrap;text-align: center; padding: 20px; background-color: lightgray;"">
        The content of this audio is _<strong>They watched the movie.</strong>_ 
        </p>",,,,,,,,,,,,,,,,,,,,
audio-keyboard-response,15,273816,0.0-10.0-4.0,,,,,,null,null,stimuli/FAS_M6M-BKBR-00-01.wav,,,,,,,,,,,,,,,,,,,,
html-keyboard-response,16,284143,0.0-10.0-5.0,,,,,,10324,j,"
        <p style= ""white-space: nowrap;text-align: center; padding: 20px; background-color: lightgray;"">
        The content of this audio is _<strong>They watched the movie.</strong>_ 
        </p>
    <p style=""width: 100%""> 
    Press <span style=""background-color: yellow;"">[ F ] key</span> if the accents are different. Press <span style=""background-color: yellow;"">[ J ] key</span> if the accents are the same.
    <u>Please press the key accordingly.</u>
    </p>",,,,,,,,,,,,practice,,7,MM,j,BKB,They watched the movie.,stimuli/FAS_M1M-BKBR-00-01.wav,stimuli/FAS_M6M-BKBR-00-01.wav
html-keyboard-response,17,285154,0.0-10.0-0.1,,,,,,null,null,"<h1 style= ""font-size: 50px"">+
    </h1>",,,,,,,,,,,,,,,,,,,,
html-keyboard-response,18,285666,0.0-10.0-1.1,,,,,,null,null,"
            <p style= ""white-space: nowrap;text-align: center; padding: 20px; background-color: lightgray;"">
            The content of this audio is _<strong>smoke</strong>_ 
            </p>",,,,,,,,,,,,,,,,,,,,
audio-keyboard-response,19,286418,0.0-10.0-2.1,,,,,,null,null,stimuli/FAS_E1M-WIPI-01-03.wav,,,,,,,,,,,,,,,,,,,,
html-keyboard-response,20,286924,0.0-10.0-3.1,,,,,,null,null,"
        <p style= ""white-space: nowrap;text-align: center; padding: 20px; background-color: lightgray;"">
        The content of this audio is _<strong>smoke</strong>_ 
        </p>",,,,,,,,,,,,,,,,,,,,
audio-keyboard-response,21,287518,0.0-10.0-4.1,,,,,,null,null,stimuli/FAS_E5M-WIPI-01-03.wav,,,,,,,,,,,,,,,,,,,,
html-keyboard-response,22,293119,0.0-10.0-5.1,,,,,,5599,f,"
        <p style= ""white-space: nowrap;text-align: center; padding: 20px; background-color: lightgray;"">
        The content of this audio is _<strong>smoke</strong>_ 
        </p>
    <p style=""width: 100%""> 
    Press <span style=""background-color: yellow;"">[ F ] key</span> if the accents are different. Press <span style=""background-color: yellow;"">[ J ] key</span> if the accents are the same.
    <u>Please press the key accordingly.</u>
    </p>",,,,,,,,,,,,practice,,3,EE,j,WIPI,smoke,stimuli/FAS_E1M-WIPI-01-03.wav,stimuli/FAS_E5M-WIPI-01-03.wav
html-keyboard-response,23,294125,0.0-10.0-0.2,,,,,,null,null,"<h1 style= ""font-size: 50px"">+
    </h1>",,,,,,,,,,,,,,,,,,,,
html-keyboard-response,24,294634,0.0-10.0-1.2,,,,,,null,null,"
            <p style= ""white-space: nowrap;text-align: center; padding: 20px; background-color: lightgray;"">
            The content of this audio is _<strong>hat</strong>_ 
            </p>",,,,,,,,,,,,,,,,,,,,
audio-keyboard-response,25,295178,0.0-10.0-2.2,,,,,,null,null,stimuli/FAS_E1M-WIPI-01-06.wav,,,,,,,,,,,,,,,,,,,,
html-keyboard-response,26,295684,0.0-10.0-3.2,,,,,,null,null,"
        <p style= ""white-space: nowrap;text-align: center; padding: 20px; background-color: lightgray;"">
        The content of this audio is _<strong>hat</strong>_ 
        </p>",,,,,,,,,,,,,,,,,,,,
audio-keyboard-response,27,296257,0.0-10.0-4.2,,,,,,null,null,stimuli/FAS_M6M-WIPI-01-06.wav,,,,,,,,,,,,,,,,,,,,
html-keyboard-response,28,297873,0.0-10.0-5.2,,,,,,1614,j,"
        <p style= ""white-space: nowrap;text-align: center; padding: 20px; background-color: lightgray;"">
        The content of this audio is _<strong>hat</strong>_ 
        </p>
    <p style=""width: 100%""> 
    Press <span style=""background-color: yellow;"">[ F ] key</span> if the accents are different. Press <span style=""background-color: yellow;"">[ J ] key</span> if the accents are the same.
    <u>Please press the key accordingly.</u>
    </p>",,,,,,,,,,,,practice,,6,EM,f,WIPI,hat,stimuli/FAS_E1M-WIPI-01-06.wav,stimuli/FAS_M6M-WIPI-01-06.wav
html-keyboard-response,29,298885,0.0-10.0-0.3,,,,,,null,null,"<h1 style= ""font-size: 50px"">+
    </h1>",,,,,,,,,,,,,,,,,,,,
html-keyboard-response,30,299394,0.0-10.0-1.3,,,,,,null,null,"
            <p style= ""white-space: nowrap;text-align: center; padding: 20px; background-color: lightgray;"">
            The content of this audio is _<strong>school</strong>_ 
            </p>",,,,,,,,,,,,,,,,,,,,
audio-keyboard-response,31,300198,0.0-10.0-2.3,,,,,,null,null,stimuli/FAS_E5M-WIPI-01-01.wav,,,,,,,,,,,,,,,,,,,,
html-keyboard-response,32,300705,0.0-10.0-3.3,,,,,,null,null,"
        <p style= ""white-space: nowrap;text-align: center; padding: 20px; background-color: lightgray;"">
        The content of this audio is _<strong>school</strong>_ 
        </p>",,,,,,,,,,,,,,,,,,,,
audio-keyboard-response,33,301478,0.0-10.0-4.3,,,,,,null,null,stimuli/FAS_E1M-WIPI-01-01.wav,,,,,,,,,,,,,,,,,,,,
html-keyboard-response,34,304408,0.0-10.0-5.3,,,,,,2927,j,"
        <p style= ""white-space: nowrap;text-align: center; padding: 20px; background-color: lightgray;"">
        The content of this audio is _<strong>school</strong>_ 
        </p>
    <p style=""width: 100%""> 
    Press <span style=""background-color: yellow;"">[ F ] key</span> if the accents are different. Press <span style=""background-color: yellow;"">[ J ] key</span> if the accents are the same.
    <u>Please press the key accordingly.</u>
    </p>",,,,,,,,,,,,practice,,1,EE,j,WIPI,school,stimuli/FAS_E5M-WIPI-01-01.wav,stimuli/FAS_E1M-WIPI-01-01.wav
html-keyboard-response,35,305415,0.0-10.0-0.4,,,,,,null,null,"<h1 style= ""font-size: 50px"">+
    </h1>",,,,,,,,,,,,,,,,,,,,
html-keyboard-response,36,305924,0.0-10.0-1.4,,,,,,null,null,"
            <p style= ""white-space: nowrap;text-align: center; padding: 20px; background-color: lightgray;"">
            The content of this audio is _<strong>It is time to go home.</strong>_ 
            </p>",,,,,,,,,,,,,,,,,,,,
audio-keyboard-response,37,307498,0.0-10.0-2.4,,,,,,null,null,stimuli/FAS_M6M-BKBR-00-02.wav,,,,,,,,,,,,,,,,,,,,
html-keyboard-response,38,308006,0.0-10.0-3.4,,,,,,null,null,"
        <p style= ""white-space: nowrap;text-align: center; padding: 20px; background-color: lightgray;"">
        The content of this audio is _<strong>It is time to go home.</strong>_ 
        </p>",,,,,,,,,,,,,,,,,,,,
audio-keyboard-response,39,309557,0.0-10.0-4.4,,,,,,null,null,stimuli/FAS_M1M-BKBR-00-02.wav,,,,,,,,,,,,,,,,,,,,
html-keyboard-response,40,310703,0.0-10.0-5.4,,,,,,1144,f,"
        <p style= ""white-space: nowrap;text-align: center; padding: 20px; background-color: lightgray;"">
        The content of this audio is _<strong>It is time to go home.</strong>_ 
        </p>
    <p style=""width: 100%""> 
    Press <span style=""background-color: yellow;"">[ F ] key</span> if the accents are different. Press <span style=""background-color: yellow;"">[ J ] key</span> if the accents are the same.
    <u>Please press the key accordingly.</u>
    </p>",,,,,,,,,,,,practice,,8,MM,j,BKB,It is time to go home.,stimuli/FAS_M6M-BKBR-00-02.wav,stimuli/FAS_M1M-BKBR-00-02.wav
html-keyboard-response,41,311715,0.0-10.0-0.5,,,,,,null,null,"<h1 style= ""font-size: 50px"">+
    </h1>",,,,,,,,,,,,,,,,,,,,
html-keyboard-response,42,312224,0.0-10.0-1.5,,,,,,null,null,"
            <p style= ""white-space: nowrap;text-align: center; padding: 20px; background-color: lightgray;"">
            The content of this audio is _<strong>The tomatoes grew in his garden.</strong>_ 
            </p>",,,,,,,,,,,,,,,,,,,,
audio-keyboard-response,43,314358,0.0-10.0-2.5,,,,,,null,null,stimuli/FAS_M6M-BKBR-00-03.wav,,,,,,,,,,,,,,,,,,,,
html-keyboard-response,44,314864,0.0-10.0-3.5,,,,,,null,null,"
        <p style= ""white-space: nowrap;text-align: center; padding: 20px; background-color: lightgray;"">
        The content of this audio is _<strong>The tomatoes grew in his garden.</strong>_ 
        </p>",,,,,,,,,,,,,,,,,,,,
audio-keyboard-response,45,317218,0.0-10.0-4.5,,,,,,null,null,stimuli/FAS_M1M-BKBR-00-03.wav,,,,,,,,,,,,,,,,,,,,
html-keyboard-response,46,318535,0.0-10.0-5.5,,,,,,1314,j,"
        <p style= ""white-space: nowrap;text-align: center; padding: 20px; background-color: lightgray;"">
        The content of this audio is _<strong>The tomatoes grew in his garden.</strong>_ 
        </p>
    <p style=""width: 100%""> 
    Press <span style=""background-color: yellow;"">[ F ] key</span> if the accents are different. Press <span style=""background-color: yellow;"">[ J ] key</span> if the accents are the same.
    <u>Please press the key accordingly.</u>
    </p>",,,,,,,,,,,,practice,,9,MM,j,BKB,The tomatoes grew in his garden.,stimuli/FAS_M6M-BKBR-00-03.wav,stimuli/FAS_M1M-BKBR-00-03.wav
html-keyboard-response,47,319545,0.0-10.0-0.6,,,,,,null,null,"<h1 style= ""font-size: 50px"">+
    </h1>",,,,,,,,,,,,,,,,,,,,
html-keyboard-response,48,320055,0.0-10.0-1.6,,,,,,null,null,"
            <p style= ""white-space: nowrap;text-align: center; padding: 20px; background-color: lightgray;"">
            The content of this audio is _<strong>The yellow pears taste good.</strong>_ 
            </p>",,,,,,,,,,,,,,,,,,,,
audio-keyboard-response,49,321797,0.0-10.0-2.6,,,,,,null,null,stimuli/FAS_E5M-HINT-P1-02.wav,,,,,,,,,,,,,,,,,,,,
html-keyboard-response,50,322304,0.0-10.0-3.6,,,,,,null,null,"
        <p style= ""white-space: nowrap;text-align: center; padding: 20px; background-color: lightgray;"">
        The content of this audio is _<strong>The yellow pears taste good.</strong>_ 
        </p>",,,,,,,,,,,,,,,,,,,,
audio-keyboard-response,51,324238,0.0-10.0-4.6,,,,,,null,null,stimuli/FAS_M6M-HINT-P1-02.wav,,,,,,,,,,,,,,,,,,,,
html-keyboard-response,52,325301,0.0-10.0-5.6,,,,,,1061,j,"
        <p style= ""white-space: nowrap;text-align: center; padding: 20px; background-color: lightgray;"">
        The content of this audio is _<strong>The yellow pears taste good.</strong>_ 
        </p>
    <p style=""width: 100%""> 
    Press <span style=""background-color: yellow;"">[ F ] key</span> if the accents are different. Press <span style=""background-color: yellow;"">[ J ] key</span> if the accents are the same.
    <u>Please press the key accordingly.</u>
    </p>",,,,,,,,,,,,practice,,11,EM,f,HINT,The yellow pears taste good.,stimuli/FAS_E5M-HINT-P1-02.wav,stimuli/FAS_M6M-HINT-P1-02.wav
html-keyboard-response,53,326305,0.0-10.0-0.7,,,,,,null,null,"<h1 style= ""font-size: 50px"">+
    </h1>",,,,,,,,,,,,,,,,,,,,
html-keyboard-response,54,326814,0.0-10.0-1.7,,,,,,null,null,"
            <p style= ""white-space: nowrap;text-align: center; padding: 20px; background-color: lightgray;"">
            The content of this audio is _<strong>fox</strong>_ 
            </p>",,,,,,,,,,,,,,,,,,,,
audio-keyboard-response,55,327598,0.0-10.0-2.7,,,,,,null,null,stimuli/FAS_M6M-WIPI-01-05.wav,,,,,,,,,,,,,,,,,,,,
html-keyboard-response,56,328105,0.0-10.0-3.7,,,,,,null,null,"
        <p style= ""white-space: nowrap;text-align: center; padding: 20px; background-color: lightgray;"">
        The content of this audio is _<strong>fox</strong>_ 
        </p>",,,,,,,,,,,,,,,,,,,,
audio-keyboard-response,57,328797,0.0-10.0-4.7,,,,,,null,null,stimuli/FAS_E1M-WIPI-01-05.wav,,,,,,,,,,,,,,,,,,,,
html-keyboard-response,58,330086,0.0-10.0-5.7,,,,,,1286,f,"
        <p style= ""white-space: nowrap;text-align: center; padding: 20px; background-color: lightgray;"">
        The content of this audio is _<strong>fox</strong>_ 
        </p>
    <p style=""width: 100%""> 
    Press <span style=""background-color: yellow;"">[ F ] key</span> if the accents are different. Press <span style=""background-color: yellow;"">[ J ] key</span> if the accents are the same.
    <u>Please press the key accordingly.</u>
    </p>",,,,,,,,,,,,practice,,5,EM,f,WIPI,fox,stimuli/FAS_M6M-WIPI-01-05.wav,stimuli/FAS_E1M-WIPI-01-05.wav
html-keyboard-response,59,331094,0.0-10.0-0.8,,,,,,null,null,"<h1 style= ""font-size: 50px"">+
    </h1>",,,,,,,,,,,,,,,,,,,,
html-keyboard-response,60,331605,0.0-10.0-1.8,,,,,,null,null,"
            <p style= ""white-space: nowrap;text-align: center; padding: 20px; background-color: lightgray;"">
            The content of this audio is _<strong>ball</strong>_ 
            </p>",,,,,,,,,,,,,,,,,,,,
audio-keyboard-response,61,332198,0.0-10.0-2.8,,,,,,null,null,stimuli/FAS_E1M-WIPI-01-02.wav,,,,,,,,,,,,,,,,,,,,
html-keyboard-response,62,332705,0.0-10.0-3.8,,,,,,null,null,"
        <p style= ""white-space: nowrap;text-align: center; padding: 20px; background-color: lightgray;"">
        The content of this audio is _<strong>ball</strong>_ 
        </p>",,,,,,,,,,,,,,,,,,,,
audio-keyboard-response,63,333217,0.0-10.0-4.8,,,,,,null,null,stimuli/FAS_E5M-WIPI-01-02.wav,,,,,,,,,,,,,,,,,,,,
html-keyboard-response,64,335604,0.0-10.0-5.8,,,,,,2385,j,"
        <p style= ""white-space: nowrap;text-align: center; padding: 20px; background-color: lightgray;"">
        The content of this audio is _<strong>ball</strong>_ 
        </p>
    <p style=""width: 100%""> 
    Press <span style=""background-color: yellow;"">[ F ] key</span> if the accents are different. Press <span style=""background-color: yellow;"">[ J ] key</span> if the accents are the same.
    <u>Please press the key accordingly.</u>
    </p>",,,,,,,,,,,,practice,,2,EE,j,WIPI,ball,stimuli/FAS_E1M-WIPI-01-02.wav,stimuli/FAS_E5M-WIPI-01-02.wav
html-keyboard-response,65,336614,0.0-10.0-0.9,,,,,,null,null,"<h1 style= ""font-size: 50px"">+
    </h1>",,,,,,,,,,,,,,,,,,,,
html-keyboard-response,66,337124,0.0-10.0-1.9,,,,,,null,null,"
            <p style= ""white-space: nowrap;text-align: center; padding: 20px; background-color: lightgray;"">
            The content of this audio is _<strong>The front yard is pretty.</strong>_ 
            </p>",,,,,,,,,,,,,,,,,,,,
audio-keyboard-response,67,338778,0.0-10.0-2.9,,,,,,null,null,stimuli/FAS_M6M-HINT-P1-03.wav,,,,,,,,,,,,,,,,,,,,
html-keyboard-response,68,339285,0.0-10.0-3.9,,,,,,null,null,"
        <p style= ""white-space: nowrap;text-align: center; padding: 20px; background-color: lightgray;"">
        The content of this audio is _<strong>The front yard is pretty.</strong>_ 
        </p>",,,,,,,,,,,,,,,,,,,,
audio-keyboard-response,69,340778,0.0-10.0-4.9,,,,,,null,null,stimuli/FAS_E5M-HINT-P1-03.wav,,,,,,,,,,,,,,,,,,,,
html-keyboard-response,70,343814,0.0-10.0-5.9,,,,,,3034,j,"
        <p style= ""white-space: nowrap;text-align: center; padding: 20px; background-color: lightgray;"">
        The content of this audio is _<strong>The front yard is pretty.</strong>_ 
        </p>
    <p style=""width: 100%""> 
    Press <span style=""background-color: yellow;"">[ F ] key</span> if the accents are different. Press <span style=""background-color: yellow;"">[ J ] key</span> if the accents are the same.
    <u>Please press the key accordingly.</u>
    </p>",,,,,,,,,,,,practice,,12,EM,f,HINT,The front yard is pretty.,stimuli/FAS_M6M-HINT-P1-03.wav,stimuli/FAS_E5M-HINT-P1-03.wav
html-keyboard-response,71,344824,0.0-10.0-0.10,,,,,,null,null,"<h1 style= ""font-size: 50px"">+
    </h1>",,,,,,,,,,,,,,,,,,,,
html-keyboard-response,72,345335,0.0-10.0-1.10,,,,,,null,null,"
            <p style= ""white-space: nowrap;text-align: center; padding: 20px; background-color: lightgray;"">
            The content of this audio is _<strong>floor</strong>_ 
            </p>",,,,,,,,,,,,,,,,,,,,
audio-keyboard-response,73,346017,0.0-10.0-2.10,,,,,,null,null,stimuli/FAS_E1M-WIPI-01-04.wav,,,,,,,,,,,,,,,,,,,,
html-keyboard-response,74,346524,0.0-10.0-3.10,,,,,,null,null,"
        <p style= ""white-space: nowrap;text-align: center; padding: 20px; background-color: lightgray;"">
        The content of this audio is _<strong>floor</strong>_ 
        </p>",,,,,,,,,,,,,,,,,,,,
audio-keyboard-response,75,347358,0.0-10.0-4.10,,,,,,null,null,stimuli/FAS_M6M-WIPI-01-04.wav,,,,,,,,,,,,,,,,,,,,
html-keyboard-response,76,350187,0.0-10.0-5.10,,,,,,2826,j,"
        <p style= ""white-space: nowrap;text-align: center; padding: 20px; background-color: lightgray;"">
        The content of this audio is _<strong>floor</strong>_ 
        </p>
    <p style=""width: 100%""> 
    Press <span style=""background-color: yellow;"">[ F ] key</span> if the accents are different. Press <span style=""background-color: yellow;"">[ J ] key</span> if the accents are the same.
    <u>Please press the key accordingly.</u>
    </p>",,,,,,,,,,,,practice,,4,EM,f,WIPI,floor,stimuli/FAS_E1M-WIPI-01-04.wav,stimuli/FAS_M6M-WIPI-01-04.wav
html-keyboard-response,77,351194,0.0-10.0-0.11,,,,,,null,null,"<h1 style= ""font-size: 50px"">+
    </h1>",,,,,,,,,,,,,,,,,,,,
html-keyboard-response,78,351704,0.0-10.0-1.11,,,,,,null,null,"
            <p style= ""white-space: nowrap;text-align: center; padding: 20px; background-color: lightgray;"">
            The content of this audio is _<strong>The boy got into trouble.</strong>_ 
            </p>",,,,,,,,,,,,,,,,,,,,
audio-keyboard-response,79,353216,0.0-10.0-2.11,,,,,,null,null,stimuli/FAS_E5M-HINT-P1-01.wav,,,,,,,,,,,,,,,,,,,,
html-keyboard-response,80,353725,0.0-10.0-3.11,,,,,,null,null,"
        <p style= ""white-space: nowrap;text-align: center; padding: 20px; background-color: lightgray;"">
        The content of this audio is _<strong>The boy got into trouble.</strong>_ 
        </p>",,,,,,,,,,,,,,,,,,,,
audio-keyboard-response,81,355578,0.0-10.0-4.11,,,,,,null,null,stimuli/FAS_M6M-HINT-P1-01.wav,,,,,,,,,,,,,,,,,,,,
html-keyboard-response,82,356255,0.0-10.0-5.11,,,,,,675,f,"
        <p style= ""white-space: nowrap;text-align: center; padding: 20px; background-color: lightgray;"">
        The content of this audio is _<strong>The boy got into trouble.</strong>_ 
        </p>
    <p style=""width: 100%""> 
    Press <span style=""background-color: yellow;"">[ F ] key</span> if the accents are different. Press <span style=""background-color: yellow;"">[ J ] key</span> if the accents are the same.
    <u>Please press the key accordingly.</u>
    </p>",,,,,,,,,,,,practice,,10,EM,f,HINT,The boy got into trouble.,stimuli/FAS_E5M-HINT-P1-01.wav,stimuli/FAS_M6M-HINT-P1-01.wav
html-button-response,83,373024,0.0-11.0,,,,,,16768,0,"
    <h1 style = ""width:100%"">
    The practice session is now over.
    </h1>
    <p>
    If you have any questions at this point, please do not close this webpage and contact the researcher.

    If you have no questions regarding the experiment procedure, click the button below to start the experiment.
    </p>
    ",,,,,,,,,,,,,,,,,,,,
html-keyboard-response,84,374034,0.0-12.0-0.0,,,,,,null,null,"<h1 style= ""font-size: 50px"">+
    </h1>",,,,,,,,,,,,,,,,,,,,
html-keyboard-response,85,374544,0.0-12.0-1.0,,,,,,null,null,"
            <p style= ""white-space: nowrap;text-align: center; padding: 20px; background-color: lightgray;"">
            The content of this audio is _<strong>The thin dog was hungry.</strong>_ 
            </p>",,,,,,,,,,,,,,,,,,,,
audio-keyboard-response,86,376083,0.0-12.0-2.0,,,,,,null,null,stimuli/FAS_E5M-BKBR-02-06.wav,,,,,,,,,,,,,,,,,,,,
html-keyboard-response,87,376589,0.0-12.0-3.0,,,,,,null,null,"
        <p style= ""white-space: nowrap;text-align: center; padding: 20px; background-color: lightgray;"">
        The content of this audio is _<strong>The thin dog was hungry.</strong>_ 
        </p>",,,,,,,,,,,,,,,,,,,,
audio-keyboard-response,88,378043,0.0-12.0-4.0,,,,,,null,null,stimuli/FAS_E1M-BKBR-02-06.wav,,,,,,,,,,,,,,,,,,,,
html-keyboard-response,89,378948,0.0-12.0-5.0,,,,,,903,j,"
        <p style= ""white-space: nowrap;text-align: center; padding: 20px; background-color: lightgray;"">
        The content of the audio is_<strong>The thin dog was hungry.</strong>_ 
        </p>
    <p style=""width: 100%""> 
    Press <span style=""background-color: yellow;"">[ F ] key</span> if the accents are different. Press <span style=""background-color: yellow;"">[ J ] key</span> if the accents are the same.
    <u>Please press the key accordingly.</u>
    </p>",,,,,,,,,,,,sentence,,22,EE,j,BKB,The thin dog was hungry.,stimuli/FAS_E5M-BKBR-02-06.wav,stimuli/FAS_E1M-BKBR-02-06.wav
html-keyboard-response,90,379959,0.0-12.0-0.1,,,,,,null,null,"<h1 style= ""font-size: 50px"">+
    </h1>",,,,,,,,,,,,,,,,,,,,
html-keyboard-response,91,380469,0.0-12.0-1.1,,,,,,null,null,"
            <p style= ""white-space: nowrap;text-align: center; padding: 20px; background-color: lightgray;"">
            The content of this audio is _<strong>The two children were laughing.</strong>_ 
            </p>",,,,,,,,,,,,,,,,,,,,
audio-keyboard-response,92,382043,0.0-12.0-2.1,,,,,,null,null,stimuli/FAS_M6M-HINT-07-05.wav,,,,,,,,,,,,,,,,,,,,
html-keyboard-response,93,382549,0.0-12.0-3.1,,,,,,null,null,"
        <p style= ""white-space: nowrap;text-align: center; padding: 20px; background-color: lightgray;"">
        The content of this audio is _<strong>The two children were laughing.</strong>_ 
        </p>",,,,,,,,,,,,,,,,,,,,
audio-keyboard-response,94,384363,0.0-12.0-4.1,,,,,,null,null,stimuli/FAS_J2M-HINT-07-05.wav,,,,,,,,,,,,,,,,,,,,
html-keyboard-response,95,385423,0.0-12.0-5.1,,,,,,1057,f,"
        <p style= ""white-space: nowrap;text-align: center; padding: 20px; background-color: lightgray;"">
        The content of the audio is_<strong>The two children were laughing.</strong>_ 
        </p>
    <p style=""width: 100%""> 
    Press <span style=""background-color: yellow;"">[ F ] key</span> if the accents are different. Press <span style=""background-color: yellow;"">[ J ] key</span> if the accents are the same.
    <u>Please press the key accordingly.</u>
    </p>",,,,,,,,,,,,sentence,,157,MJ,f,HINT,The two children were laughing.,stimuli/FAS_M6M-HINT-07-05.wav,stimuli/FAS_J2M-HINT-07-05.wav
html-keyboard-response,96,386429,0.0-12.0-0.2,,,,,,null,null,"<h1 style= ""font-size: 50px"">+
    </h1>",,,,,,,,,,,,,,,,,,,,
html-keyboard-response,97,386939,0.0-12.0-1.2,,,,,,null,null,"
            <p style= ""white-space: nowrap;text-align: center; padding: 20px; background-color: lightgray;"">
            The content of this audio is _<strong>He is bringing his raincoat.</strong>_ 
            </p>",,,,,,,,,,,,,,,,,,,,
audio-keyboard-response,98,389102,0.0-12.0-2.2,,,,,,null,null,stimuli/FAS_K9M-BKBR-06-11.wav,,,,,,,,,,,,,,,,,,,,
html-keyboard-response,99,389609,0.0-12.0-3.2,,,,,,null,null,"
        <p style= ""white-space: nowrap;text-align: center; padding: 20px; background-color: lightgray;"">
        The content of this audio is _<strong>He is bringing his raincoat.</strong>_ 
        </p>",,,,,,,,,,,,,,,,,,,,
audio-keyboard-response,100,392342,0.0-12.0-4.2,,,,,,null,null,stimuli/FAS_K7M-BKBR-06-11.wav,,,,,,,,,,,,,,,,,,,,
html-keyboard-response,101,393665,0.0-12.0-5.2,,,,,,1321,f,"
        <p style= ""white-space: nowrap;text-align: center; padding: 20px; background-color: lightgray;"">
        The content of the audio is_<strong>He is bringing his raincoat.</strong>_ 
        </p>
    <p style=""width: 100%""> 
    Press <span style=""background-color: yellow;"">[ F ] key</span> if the accents are different. Press <span style=""background-color: yellow;"">[ J ] key</span> if the accents are the same.
    <u>Please press the key accordingly.</u>
    </p>",,,,,,,,,,,,sentence,,91,KK,j,BKB,He is bringing his raincoat.,stimuli/FAS_K9M-BKBR-06-11.wav,stimuli/FAS_K7M-BKBR-06-11.wav
html-keyboard-response,102,394669,0.0-12.0-0.3,,,,,,null,null,"<h1 style= ""font-size: 50px"">+
    </h1>",,,,,,,,,,,,,,,,,,,,
html-keyboard-response,103,395179,0.0-12.0-1.3,,,,,,null,null,"
            <p style= ""white-space: nowrap;text-align: center; padding: 20px; background-color: lightgray;"">
            The content of this audio is _<strong>The dog played with a stick.</strong>_ 
            </p>",,,,,,,,,,,,,,,,,,,,
audio-keyboard-response,104,397002,0.0-12.0-2.3,,,,,,null,null,stimuli/FAS_M6M-BKBR-03-02.wav,,,,,,,,,,,,,,,,,,,,
html-keyboard-response,105,397509,0.0-12.0-3.3,,,,,,null,null,"
        <p style= ""white-space: nowrap;text-align: center; padding: 20px; background-color: lightgray;"">
        The content of this audio is _<strong>The dog played with a stick.</strong>_ 
        </p>",,,,,,,,,,,,,,,,,,,,
audio-keyboard-response,106,399542,0.0-12.0-4.3,,,,,,null,null,stimuli/FAS_M1M-BKBR-03-02.wav,,,,,,,,,,,,,,,,,,,,
html-keyboard-response,107,400546,0.0-12.0-5.3,,,,,,1002,f,"
        <p style= ""white-space: nowrap;text-align: center; padding: 20px; background-color: lightgray;"">
        The content of the audio is_<strong>The dog played with a stick.</strong>_ 
        </p>
    <p style=""width: 100%""> 
    Press <span style=""background-color: yellow;"">[ F ] key</span> if the accents are different. Press <span style=""background-color: yellow;"">[ J ] key</span> if the accents are the same.
    <u>Please press the key accordingly.</u>
    </p>",,,,,,,,,,,,sentence,,34,MM,j,BKB,The dog played with a stick.,stimuli/FAS_M6M-BKBR-03-02.wav,stimuli/FAS_M1M-BKBR-03-02.wav
html-keyboard-response,108,401550,0.0-12.0-0.4,,,,,,null,null,"<h1 style= ""font-size: 50px"">+
    </h1>",,,,,,,,,,,,,,,,,,,,
html-keyboard-response,109,402059,0.0-12.0-1.4,,,,,,null,null,"
            <p style= ""white-space: nowrap;text-align: center; padding: 20px; background-color: lightgray;"">
            The content of this audio is _<strong>The woman cleaned her house.</strong>_ 
            </p>",,,,,,,,,,,,,,,,,,,,
audio-keyboard-response,110,404002,0.0-12.0-2.4,,,,,,null,null,stimuli/FAS_E1M-BKBR-06-16.wav,,,,,,,,,,,,,,,,,,,,
html-keyboard-response,111,404510,0.0-12.0-3.4,,,,,,null,null,"
        <p style= ""white-space: nowrap;text-align: center; padding: 20px; background-color: lightgray;"">
        The content of this audio is _<strong>The woman cleaned her house.</strong>_ 
        </p>",,,,,,,,,,,,,,,,,,,,
audio-keyboard-response,112,406383,0.0-12.0-4.4,,,,,,null,null,stimuli/FAS_K9M-BKBR-06-16.wav,,,,,,,,,,,,,,,,,,,,
html-keyboard-response,113,409928,0.0-12.0-5.4,,,,,,3543,f,"
        <p style= ""white-space: nowrap;text-align: center; padding: 20px; background-color: lightgray;"">
        The content of the audio is_<strong>The woman cleaned her house.</strong>_ 
        </p>
    <p style=""width: 100%""> 
    Press <span style=""background-color: yellow;"">[ F ] key</span> if the accents are different. Press <span style=""background-color: yellow;"">[ J ] key</span> if the accents are the same.
    <u>Please press the key accordingly.</u>
    </p>",,,,,,,,,,,,sentence,,133,EK,f,HINT,The woman cleaned her house.,stimuli/FAS_E1M-BKBR-06-16.wav,stimuli/FAS_K9M-BKBR-06-16.wav
html-keyboard-response,114,410929,0.0-12.0-0.5,,,,,,null,null,"<h1 style= ""font-size: 50px"">+
    </h1>",,,,,,,,,,,,,,,,,,,,
html-keyboard-response,115,411439,0.0-12.0-1.5,,,,,,null,null,"
            <p style= ""white-space: nowrap;text-align: center; padding: 20px; background-color: lightgray;"">
            The content of this audio is _<strong>The child grabbed the toy.</strong>_ 
            </p>",,,,,,,,,,,,,,,,,,,,
audio-keyboard-response,116,412982,0.0-12.0-2.5,,,,,,null,null,stimuli/FAS_J2M-BKBR-04-15.wav,,,,,,,,,,,,,,,,,,,,
html-keyboard-response,117,413489,0.0-12.0-3.5,,,,,,null,null,"
        <p style= ""white-space: nowrap;text-align: center; padding: 20px; background-color: lightgray;"">
        The content of this audio is _<strong>The child grabbed the toy.</strong>_ 
        </p>",,,,,,,,,,,,,,,,,,,,
audio-keyboard-response,118,415583,0.0-12.0-4.5,,,,,,null,null,stimuli/FAS_J1M-BKBR-04-15.wav,,,,,,,,,,,,,,,,,,,,
html-keyboard-response,119,417306,0.0-12.0-5.5,,,,,,1721,j,"
        <p style= ""white-space: nowrap;text-align: center; padding: 20px; background-color: lightgray;"">
        The content of the audio is_<strong>The child grabbed the toy.</strong>_ 
        </p>
    <p style=""width: 100%""> 
    Press <span style=""background-color: yellow;"">[ F ] key</span> if the accents are different. Press <span style=""background-color: yellow;"">[ J ] key</span> if the accents are the same.
    <u>Please press the key accordingly.</u>
    </p>",,,,,,,,,,,,sentence,,63,JJ,j,BKB,The child grabbed the toy.,stimuli/FAS_J2M-BKBR-04-15.wav,stimuli/FAS_J1M-BKBR-04-15.wav
html-keyboard-response,120,418310,0.0-12.0-0.6,,,,,,null,null,"<h1 style= ""font-size: 50px"">+
    </h1>",,,,,,,,,,,,,,,,,,,,
html-keyboard-response,121,418819,0.0-12.0-1.6,,,,,,null,null,"
            <p style= ""white-space: nowrap;text-align: center; padding: 20px; background-color: lightgray;"">
            The content of this audio is _<strong>The girl lost her doll.</strong>_ 
            </p>",,,,,,,,,,,,,,,,,,,,
audio-keyboard-response,122,420403,0.0-12.0-2.6,,,,,,null,null,stimuli/FAS_J2M-BKBR-04-13.wav,,,,,,,,,,,,,,,,,,,,
html-keyboard-response,123,420909,0.0-12.0-3.6,,,,,,null,null,"
        <p style= ""white-space: nowrap;text-align: center; padding: 20px; background-color: lightgray;"">
        The content of this audio is _<strong>The girl lost her doll.</strong>_ 
        </p>",,,,,,,,,,,,,,,,,,,,
audio-keyboard-response,124,422742,0.0-12.0-4.6,,,,,,null,null,stimuli/FAS_J1M-BKBR-04-13.wav,,,,,,,,,,,,,,,,,,,,
html-keyboard-response,125,423297,0.0-12.0-5.6,,,,,,552,j,"
        <p style= ""white-space: nowrap;text-align: center; padding: 20px; background-color: lightgray;"">
        The content of the audio is_<strong>The girl lost her doll.</strong>_ 
        </p>
    <p style=""width: 100%""> 
    Press <span style=""background-color: yellow;"">[ F ] key</span> if the accents are different. Press <span style=""background-color: yellow;"">[ J ] key</span> if the accents are the same.
    <u>Please press the key accordingly.</u>
    </p>",,,,,,,,,,,,sentence,,61,JJ,j,BKB,The girl lost her doll.,stimuli/FAS_J2M-BKBR-04-13.wav,stimuli/FAS_J1M-BKBR-04-13.wav
html-keyboard-response,126,424299,0.0-12.0-0.7,,,,,,null,null,"<h1 style= ""font-size: 50px"">+
    </h1>",,,,,,,,,,,,,,,,,,,,
html-keyboard-response,127,424809,0.0-12.0-1.7,,,,,,null,null,"
            <p style= ""white-space: nowrap;text-align: center; padding: 20px; background-color: lightgray;"">
            The content of this audio is _<strong>The lady is making a toy.</strong>_ 
            </p>",,,,,,,,,,,,,,,,,,,,
audio-keyboard-response,128,426621,0.0-12.0-2.7,,,,,,null,null,stimuli/FAS_M6M-BKBR-02-12.wav,,,,,,,,,,,,,,,,,,,,
html-keyboard-response,129,427130,0.0-12.0-3.7,,,,,,null,null,"
        <p style= ""white-space: nowrap;text-align: center; padding: 20px; background-color: lightgray;"">
        The content of this audio is _<strong>The lady is making a toy.</strong>_ 
        </p>",,,,,,,,,,,,,,,,,,,,
audio-keyboard-response,130,428603,0.0-12.0-4.7,,,,,,null,null,stimuli/FAS_M1M-BKBR-02-12.wav,,,,,,,,,,,,,,,,,,,,
html-keyboard-response,131,429421,0.0-12.0-5.7,,,,,,815,j,"
        <p style= ""white-space: nowrap;text-align: center; padding: 20px; background-color: lightgray;"">
        The content of the audio is_<strong>The lady is making a toy.</strong>_ 
        </p>
    <p style=""width: 100%""> 
    Press <span style=""background-color: yellow;"">[ F ] key</span> if the accents are different. Press <span style=""background-color: yellow;"">[ J ] key</span> if the accents are the same.
    <u>Please press the key accordingly.</u>
    </p>",,,,,,,,,,,,sentence,,28,MM,j,BKB,The lady is making a toy.,stimuli/FAS_M6M-BKBR-02-12.wav,stimuli/FAS_M1M-BKBR-02-12.wav
html-keyboard-response,132,430429,0.0-12.0-0.8,,,,,,null,null,"<h1 style= ""font-size: 50px"">+
    </h1>",,,,,,,,,,,,,,,,,,,,
html-keyboard-response,133,430939,0.0-12.0-1.8,,,,,,null,null,"
            <p style= ""white-space: nowrap;text-align: center; padding: 20px; background-color: lightgray;"">
            The content of this audio is _<strong>Mother stirred her tea.</strong>_ 
            </p>",,,,,,,,,,,,,,,,,,,,
audio-keyboard-response,134,433783,0.0-12.0-2.8,,,,,,null,null,stimuli/FAS_K7M-BKBR-06-02.wav,,,,,,,,,,,,,,,,,,,,
html-keyboard-response,135,434289,0.0-12.0-3.8,,,,,,null,null,"
        <p style= ""white-space: nowrap;text-align: center; padding: 20px; background-color: lightgray;"">
        The content of this audio is _<strong>Mother stirred her tea.</strong>_ 
        </p>",,,,,,,,,,,,,,,,,,,,
audio-keyboard-response,136,435983,0.0-12.0-4.8,,,,,,null,null,stimuli/FAS_K9M-BKBR-06-02.wav,,,,,,,,,,,,,,,,,,,,
html-keyboard-response,137,440105,0.0-12.0-5.8,,,,,,4120,j,"
        <p style= ""white-space: nowrap;text-align: center; padding: 20px; background-color: lightgray;"">
        The content of the audio is_<strong>Mother stirred her tea.</strong>_ 
        </p>
    <p style=""width: 100%""> 
    Press <span style=""background-color: yellow;"">[ F ] key</span> if the accents are different. Press <span style=""background-color: yellow;"">[ J ] key</span> if the accents are the same.
    <u>Please press the key accordingly.</u>
    </p>",,,,,,,,,,,,sentence,,82,KK,j,BKB,Mother stirred her tea.,stimuli/FAS_K7M-BKBR-06-02.wav,stimuli/FAS_K9M-BKBR-06-02.wav
html-keyboard-response,138,441109,0.0-12.0-0.9,,,,,,null,null,"<h1 style= ""font-size: 50px"">+
    </h1>",,,,,,,,,,,,,,,,,,,,
html-keyboard-response,139,441619,0.0-12.0-1.9,,,,,,null,null,"
            <p style= ""white-space: nowrap;text-align: center; padding: 20px; background-color: lightgray;"">
            The content of this audio is _<strong>He played with his train.</strong>_ 
            </p>",,,,,,,,,,,,,,,,,,,,
audio-keyboard-response,140,443123,0.0-12.0-2.9,,,,,,null,null,stimuli/FAS_E5M-BKBR-01-08.wav,,,,,,,,,,,,,,,,,,,,
html-keyboard-response,141,443630,0.0-12.0-3.9,,,,,,null,null,"
        <p style= ""white-space: nowrap;text-align: center; padding: 20px; background-color: lightgray;"">
        The content of this audio is _<strong>He played with his train.</strong>_ 
        </p>",,,,,,,,,,,,,,,,,,,,
audio-keyboard-response,142,445063,0.0-12.0-4.9,,,,,,null,null,stimuli/FAS_E1M-BKBR-01-08.wav,,,,,,,,,,,,,,,,,,,,
html-keyboard-response,143,445689,0.0-12.0-5.9,,,,,,624,j,"
        <p style= ""white-space: nowrap;text-align: center; padding: 20px; background-color: lightgray;"">
        The content of the audio is_<strong>He played with his train.</strong>_ 
        </p>
    <p style=""width: 100%""> 
    Press <span style=""background-color: yellow;"">[ F ] key</span> if the accents are different. Press <span style=""background-color: yellow;"">[ J ] key</span> if the accents are the same.
    <u>Please press the key accordingly.</u>
    </p>",,,,,,,,,,,,sentence,,8,EE,j,BKB,He played with his train.,stimuli/FAS_E5M-BKBR-01-08.wav,stimuli/FAS_E1M-BKBR-01-08.wav
html-keyboard-response,144,446699,0.0-12.0-0.10,,,,,,null,null,"<h1 style= ""font-size: 50px"">+
    </h1>",,,,,,,,,,,,,,,,,,,,
html-keyboard-response,145,447209,0.0-12.0-1.10,,,,,,null,null,"
            <p style= ""white-space: nowrap;text-align: center; padding: 20px; background-color: lightgray;"">
            The content of this audio is _<strong>The glass bowl broke.</strong>_ 
            </p>",,,,,,,,,,,,,,,,,,,,
audio-keyboard-response,146,448823,0.0-12.0-2.10,,,,,,null,null,stimuli/FAS_M6M-BKBR-03-01.wav,,,,,,,,,,,,,,,,,,,,
html-keyboard-response,147,449329,0.0-12.0-3.10,,,,,,null,null,"
        <p style= ""white-space: nowrap;text-align: center; padding: 20px; background-color: lightgray;"">
        The content of this audio is _<strong>The glass bowl broke.</strong>_ 
        </p>",,,,,,,,,,,,,,,,,,,,
audio-keyboard-response,148,450783,0.0-12.0-4.10,,,,,,null,null,stimuli/FAS_M1M-BKBR-03-01.wav,,,,,,,,,,,,,,,,,,,,
html-keyboard-response,149,450958,0.0-12.0-5.10,,,,,,174,j,"
        <p style= ""white-space: nowrap;text-align: center; padding: 20px; background-color: lightgray;"">
        The content of the audio is_<strong>The glass bowl broke.</strong>_ 
        </p>
    <p style=""width: 100%""> 
    Press <span style=""background-color: yellow;"">[ F ] key</span> if the accents are different. Press <span style=""background-color: yellow;"">[ J ] key</span> if the accents are the same.
    <u>Please press the key accordingly.</u>
    </p>",,,,,,,,,,,,sentence,,33,MM,j,BKB,The glass bowl broke.,stimuli/FAS_M6M-BKBR-03-01.wav,stimuli/FAS_M1M-BKBR-03-01.wav
html-keyboard-response,150,451969,0.0-12.0-0.11,,,,,,null,null,"<h1 style= ""font-size: 50px"">+
    </h1>",,,,,,,,,,,,,,,,,,,,
html-keyboard-response,151,452479,0.0-12.0-1.11,,,,,,null,null,"
            <p style= ""white-space: nowrap;text-align: center; padding: 20px; background-color: lightgray;"">
            The content of this audio is _<strong>The boy did a handstand.</strong>_ 
            </p>",,,,,,,,,,,,,,,,,,,,
audio-keyboard-response,152,454143,0.0-12.0-2.11,,,,,,null,null,stimuli/FAS_E1M-BKBR-01-12.wav,,,,,,,,,,,,,,,,,,,,
html-keyboard-response,153,454649,0.0-12.0-3.11,,,,,,null,null,"
        <p style= ""white-space: nowrap;text-align: center; padding: 20px; background-color: lightgray;"">
        The content of this audio is _<strong>The boy did a handstand.</strong>_ 
        </p>",,,,,,,,,,,,,,,,,,,,
audio-keyboard-response,154,456302,0.0-12.0-4.11,,,,,,null,null,stimuli/FAS_E5M-BKBR-01-12.wav,,,,,,,,,,,,,,,,,,,,
html-keyboard-response,155,459129,0.0-12.0-5.11,,,,,,2825,j,"
        <p style= ""white-space: nowrap;text-align: center; padding: 20px; background-color: lightgray;"">
        The content of the audio is_<strong>The boy did a handstand.</strong>_ 
        </p>
    <p style=""width: 100%""> 
    Press <span style=""background-color: yellow;"">[ F ] key</span> if the accents are different. Press <span style=""background-color: yellow;"">[ J ] key</span> if the accents are the same.
    <u>Please press the key accordingly.</u>
    </p>",,,,,,,,,,,,sentence,,12,EE,j,BKB,The boy did a handstand.,stimuli/FAS_E1M-BKBR-01-12.wav,stimuli/FAS_E5M-BKBR-01-12.wav
html-keyboard-response,156,460139,0.0-12.0-0.12,,,,,,null,null,"<h1 style= ""font-size: 50px"">+
    </h1>",,,,,,,,,,,,,,,,,,,,
html-keyboard-response,157,460649,0.0-12.0-1.12,,,,,,null,null,"
            <p style= ""white-space: nowrap;text-align: center; padding: 20px; background-color: lightgray;"">
            The content of this audio is _<strong>They watched a scary movie.</strong>_ 
            </p>",,,,,,,,,,,,,,,,,,,,
audio-keyboard-response,158,462682,0.0-12.0-2.12,,,,,,null,null,stimuli/FAS_K7M-HINT-05-06.wav,,,,,,,,,,,,,,,,,,,,
html-keyboard-response,159,463189,0.0-12.0-3.12,,,,,,null,null,"
        <p style= ""white-space: nowrap;text-align: center; padding: 20px; background-color: lightgray;"">
        The content of this audio is _<strong>They watched a scary movie.</strong>_ 
        </p>",,,,,,,,,,,,,,,,,,,,
audio-keyboard-response,160,464783,0.0-12.0-4.12,,,,,,null,null,stimuli/FAS_E5M-HINT-05-06.wav,,,,,,,,,,,,,,,,,,,,
html-keyboard-response,161,465231,0.0-12.0-5.12,,,,,,446,f,"
        <p style= ""white-space: nowrap;text-align: center; padding: 20px; background-color: lightgray;"">
        The content of the audio is_<strong>They watched a scary movie.</strong>_ 
        </p>
    <p style=""width: 100%""> 
    Press <span style=""background-color: yellow;"">[ F ] key</span> if the accents are different. Press <span style=""background-color: yellow;"">[ J ] key</span> if the accents are the same.
    <u>Please press the key accordingly.</u>
    </p>",,,,,,,,,,,,sentence,,138,EK,f,HINT,They watched a scary movie.,stimuli/FAS_K7M-HINT-05-06.wav,stimuli/FAS_E5M-HINT-05-06.wav
html-keyboard-response,162,466239,0.0-12.0-0.13,,,,,,null,null,"<h1 style= ""font-size: 50px"">+
    </h1>",,,,,,,,,,,,,,,,,,,,
html-keyboard-response,163,466749,0.0-12.0-1.13,,,,,,null,null,"
            <p style= ""white-space: nowrap;text-align: center; padding: 20px; background-color: lightgray;"">
            The content of this audio is _<strong>They're shopping for school clothes.</strong>_ 
            </p>",,,,,,,,,,,,,,,,,,,,
audio-keyboard-response,164,469003,0.0-12.0-2.13,,,,,,null,null,stimuli/FAS_J1M-HINT-10-02.wav,,,,,,,,,,,,,,,,,,,,
html-keyboard-response,165,469509,0.0-12.0-3.13,,,,,,null,null,"
        <p style= ""white-space: nowrap;text-align: center; padding: 20px; background-color: lightgray;"">
        The content of this audio is _<strong>They're shopping for school clothes.</strong>_ 
        </p>",,,,,,,,,,,,,,,,,,,,
audio-keyboard-response,166,471563,0.0-12.0-4.13,,,,,,null,null,stimuli/FAS_K9M-HINT-10-02.wav,,,,,,,,,,,,,,,,,,,,
html-keyboard-response,167,472773,0.0-12.0-5.13,,,,,,1208,f,"
        <p style= ""white-space: nowrap;text-align: center; padding: 20px; background-color: lightgray;"">
        The content of the audio is_<strong>They're shopping for school clothes.</strong>_ 
        </p>
    <p style=""width: 100%""> 
    Press <span style=""background-color: yellow;"">[ F ] key</span> if the accents are different. Press <span style=""background-color: yellow;"">[ J ] key</span> if the accents are the same.
    <u>Please press the key accordingly.</u>
    </p>",,,,,,,,,,,,sentence,,184,JK,f,HINT,They're shopping for school clothes.,stimuli/FAS_J1M-HINT-10-02.wav,stimuli/FAS_K9M-HINT-10-02.wav
html-keyboard-response,168,473779,0.0-12.0-0.14,,,,,,null,null,"<h1 style= ""font-size: 50px"">+
    </h1>",,,,,,,,,,,,,,,,,,,,
html-keyboard-response,169,474289,0.0-12.0-1.14,,,,,,null,null,"
            <p style= ""white-space: nowrap;text-align: center; padding: 20px; background-color: lightgray;"">
            The content of this audio is _<strong>A mouse ran down the hole.</strong>_ 
            </p>",,,,,,,,,,,,,,,,,,,,
audio-keyboard-response,170,476182,0.0-12.0-2.14,,,,,,null,null,stimuli/FAS_M1M-BKBR-02-11.wav,,,,,,,,,,,,,,,,,,,,
html-keyboard-response,171,476689,0.0-12.0-3.14,,,,,,null,null,"
        <p style= ""white-space: nowrap;text-align: center; padding: 20px; background-color: lightgray;"">
        The content of this audio is _<strong>A mouse ran down the hole.</strong>_ 
        </p>",,,,,,,,,,,,,,,,,,,,
audio-keyboard-response,172,478283,0.0-12.0-4.14,,,,,,null,null,stimuli/FAS_M6M-BKBR-02-11.wav,,,,,,,,,,,,,,,,,,,,
html-keyboard-response,173,479754,0.0-12.0-5.14,,,,,,1469,f,"
        <p style= ""white-space: nowrap;text-align: center; padding: 20px; background-color: lightgray;"">
        The content of the audio is_<strong>A mouse ran down the hole.</strong>_ 
        </p>
    <p style=""width: 100%""> 
    Press <span style=""background-color: yellow;"">[ F ] key</span> if the accents are different. Press <span style=""background-color: yellow;"">[ J ] key</span> if the accents are the same.
    <u>Please press the key accordingly.</u>
    </p>",,,,,,,,,,,,sentence,,27,MM,j,BKB,A mouse ran down the hole.,stimuli/FAS_M1M-BKBR-02-11.wav,stimuli/FAS_M6M-BKBR-02-11.wav
html-keyboard-response,174,480759,0.0-12.0-0.15,,,,,,null,null,"<h1 style= ""font-size: 50px"">+
    </h1>",,,,,,,,,,,,,,,,,,,,
html-keyboard-response,175,481269,0.0-12.0-1.15,,,,,,null,null,"
            <p style= ""white-space: nowrap;text-align: center; padding: 20px; background-color: lightgray;"">
            The content of this audio is _<strong>The bottle is on the shelf.</strong>_ 
            </p>",,,,,,,,,,,,,,,,,,,,
audio-keyboard-response,176,483223,0.0-12.0-2.15,,,,,,null,null,stimuli/FAS_K7M-HINT-08-09.wav,,,,,,,,,,,,,,,,,,,,
html-keyboard-response,177,483730,0.0-12.0-3.15,,,,,,null,null,"
        <p style= ""white-space: nowrap;text-align: center; padding: 20px; background-color: lightgray;"">
        The content of this audio is _<strong>The bottle is on the shelf.</strong>_ 
        </p>",,,,,,,,,,,,,,,,,,,,
audio-keyboard-response,178,485463,0.0-12.0-4.15,,,,,,null,null,stimuli/FAS_M6M-HINT-08-09.wav,,,,,,,,,,,,,,,,,,,,
html-keyboard-response,179,486022,0.0-12.0-5.15,,,,,,557,f,"
        <p style= ""white-space: nowrap;text-align: center; padding: 20px; background-color: lightgray;"">
        The content of the audio is_<strong>The bottle is on the shelf.</strong>_ 
        </p>
    <p style=""width: 100%""> 
    Press <span style=""background-color: yellow;"">[ F ] key</span> if the accents are different. Press <span style=""background-color: yellow;"">[ J ] key</span> if the accents are the same.
    <u>Please press the key accordingly.</u>
    </p>",,,,,,,,,,,,sentence,,171,MK,f,HINT,The bottle is on the shelf.,stimuli/FAS_K7M-HINT-08-09.wav,stimuli/FAS_M6M-HINT-08-09.wav
html-keyboard-response,180,487029,0.0-12.0-0.16,,,,,,null,null,"<h1 style= ""font-size: 50px"">+
    </h1>",,,,,,,,,,,,,,,,,,,,
html-keyboard-response,181,487539,0.0-12.0-1.16,,,,,,null,null,"
            <p style= ""white-space: nowrap;text-align: center; padding: 20px; background-color: lightgray;"">
            The content of this audio is _<strong>She is taking her coat.</strong>_ 
            </p>",,,,,,,,,,,,,,,,,,,,
audio-keyboard-response,182,489122,0.0-12.0-2.16,,,,,,null,null,stimuli/FAS_M1M-BKBR-02-09.wav,,,,,,,,,,,,,,,,,,,,
html-keyboard-response,183,489629,0.0-12.0-3.16,,,,,,null,null,"
        <p style= ""white-space: nowrap;text-align: center; padding: 20px; background-color: lightgray;"">
        The content of this audio is _<strong>She is taking her coat.</strong>_ 
        </p>",,,,,,,,,,,,,,,,,,,,
audio-keyboard-response,184,491182,0.0-12.0-4.16,,,,,,null,null,stimuli/FAS_M6M-BKBR-02-09.wav,,,,,,,,,,,,,,,,,,,,
html-keyboard-response,185,491669,0.0-12.0-5.16,,,,,,485,j,"
        <p style= ""white-space: nowrap;text-align: center; padding: 20px; background-color: lightgray;"">
        The content of the audio is_<strong>She is taking her coat.</strong>_ 
        </p>
    <p style=""width: 100%""> 
    Press <span style=""background-color: yellow;"">[ F ] key</span> if the accents are different. Press <span style=""background-color: yellow;"">[ J ] key</span> if the accents are the same.
    <u>Please press the key accordingly.</u>
    </p>",,,,,,,,,,,,sentence,,25,MM,j,BKB,She is taking her coat.,stimuli/FAS_M1M-BKBR-02-09.wav,stimuli/FAS_M6M-BKBR-02-09.wav
html-keyboard-response,186,492680,0.0-12.0-0.17,,,,,,null,null,"<h1 style= ""font-size: 50px"">+
    </h1>",,,,,,,,,,,,,,,,,,,,
html-keyboard-response,187,493190,0.0-12.0-1.17,,,,,,null,null,"
            <p style= ""white-space: nowrap;text-align: center; padding: 20px; background-color: lightgray;"">
            The content of this audio is _<strong>The police chased the car.</strong>_ 
            </p>",,,,,,,,,,,,,,,,,,,,
audio-keyboard-response,188,495023,0.0-12.0-2.17,,,,,,null,null,stimuli/FAS_M6M-BKBR-02-10.wav,,,,,,,,,,,,,,,,,,,,
html-keyboard-response,189,495530,0.0-12.0-3.17,,,,,,null,null,"
        <p style= ""white-space: nowrap;text-align: center; padding: 20px; background-color: lightgray;"">
        The content of this audio is _<strong>The police chased the car.</strong>_ 
        </p>",,,,,,,,,,,,,,,,,,,,
audio-keyboard-response,190,497203,0.0-12.0-4.17,,,,,,null,null,stimuli/FAS_M1M-BKBR-02-10.wav,,,,,,,,,,,,,,,,,,,,
html-keyboard-response,191,497606,0.0-12.0-5.17,,,,,,401,j,"
        <p style= ""white-space: nowrap;text-align: center; padding: 20px; background-color: lightgray;"">
        The content of the audio is_<strong>The police chased the car.</strong>_ 
        </p>
    <p style=""width: 100%""> 
    Press <span style=""background-color: yellow;"">[ F ] key</span> if the accents are different. Press <span style=""background-color: yellow;"">[ J ] key</span> if the accents are the same.
    <u>Please press the key accordingly.</u>
    </p>",,,,,,,,,,,,sentence,,26,MM,j,BKB,The police chased the car.,stimuli/FAS_M6M-BKBR-02-10.wav,stimuli/FAS_M1M-BKBR-02-10.wav
html-keyboard-response,192,498609,0.0-12.0-0.18,,,,,,null,null,"<h1 style= ""font-size: 50px"">+
    </h1>",,,,,,,,,,,,,,,,,,,,
html-keyboard-response,193,499120,0.0-12.0-1.18,,,,,,null,null,"
            <p style= ""white-space: nowrap;text-align: center; padding: 20px; background-color: lightgray;"">
            The content of this audio is _<strong>She lost her credit card.</strong>_ 
            </p>",,,,,,,,,,,,,,,,,,,,
audio-keyboard-response,194,500823,0.0-12.0-2.18,,,,,,null,null,stimuli/FAS_E5M-HINT-03-09.wav,,,,,,,,,,,,,,,,,,,,
html-keyboard-response,195,501329,0.0-12.0-3.18,,,,,,null,null,"
        <p style= ""white-space: nowrap;text-align: center; padding: 20px; background-color: lightgray;"">
        The content of this audio is _<strong>She lost her credit card.</strong>_ 
        </p>",,,,,,,,,,,,,,,,,,,,
audio-keyboard-response,196,503282,0.0-12.0-4.18,,,,,,null,null,stimuli/FAS_J1M-HINT-03-09.wav,,,,,,,,,,,,,,,,,,,,
html-keyboard-response,197,503501,0.0-12.0-5.18,,,,,,217,f,"
        <p style= ""white-space: nowrap;text-align: center; padding: 20px; background-color: lightgray;"">
        The content of the audio is_<strong>She lost her credit card.</strong>_ 
        </p>
    <p style=""width: 100%""> 
    Press <span style=""background-color: yellow;"">[ F ] key</span> if the accents are different. Press <span style=""background-color: yellow;"">[ J ] key</span> if the accents are the same.
    <u>Please press the key accordingly.</u>
    </p>",,,,,,,,,,,,sentence,,121,EJ,f,HINT,She lost her credit card.,stimuli/FAS_E5M-HINT-03-09.wav,stimuli/FAS_J1M-HINT-03-09.wav
html-keyboard-response,198,504509,0.0-12.0-0.19,,,,,,null,null,"<h1 style= ""font-size: 50px"">+
    </h1>",,,,,,,,,,,,,,,,,,,,
html-keyboard-response,199,505020,0.0-12.0-1.19,,,,,,null,null,"
            <p style= ""white-space: nowrap;text-align: center; padding: 20px; background-color: lightgray;"">
            The content of this audio is _<strong>The children dropped the bag.</strong>_ 
            </p>",,,,,,,,,,,,,,,,,,,,
audio-keyboard-response,200,506621,0.0-12.0-2.19,,,,,,null,null,stimuli/FAS_K9M-BKBR-07-01.wav,,,,,,,,,,,,,,,,,,,,
html-keyboard-response,201,507129,0.0-12.0-3.19,,,,,,null,null,"
        <p style= ""white-space: nowrap;text-align: center; padding: 20px; background-color: lightgray;"">
        The content of this audio is _<strong>The children dropped the bag.</strong>_ 
        </p>",,,,,,,,,,,,,,,,,,,,
audio-keyboard-response,202,508783,0.0-12.0-4.19,,,,,,null,null,stimuli/FAS_E5M-BKBR-07-01.wav,,,,,,,,,,,,,,,,,,,,
html-keyboard-response,203,509474,0.0-12.0-5.19,,,,,,689,j,"
        <p style= ""white-space: nowrap;text-align: center; padding: 20px; background-color: lightgray;"">
        The content of the audio is_<strong>The children dropped the bag.</strong>_ 
        </p>
    <p style=""width: 100%""> 
    Press <span style=""background-color: yellow;"">[ F ] key</span> if the accents are different. Press <span style=""background-color: yellow;"">[ J ] key</span> if the accents are the same.
    <u>Please press the key accordingly.</u>
    </p>",,,,,,,,,,,,sentence,,143,EK,f,BKB,The children dropped the bag.,stimuli/FAS_K9M-BKBR-07-01.wav,stimuli/FAS_E5M-BKBR-07-01.wav
html-keyboard-response,204,510479,0.0-12.0-0.20,,,,,,null,null,"<h1 style= ""font-size: 50px"">+
    </h1>",,,,,,,,,,,,,,,,,,,,
html-keyboard-response,205,510989,0.0-12.0-1.20,,,,,,null,null,"
            <p style= ""white-space: nowrap;text-align: center; padding: 20px; background-color: lightgray;"">
            The content of this audio is _<strong>A boy fell from the window.</strong>_ 
            </p>",,,,,,,,,,,,,,,,,,,,
audio-keyboard-response,206,513022,0.0-12.0-2.20,,,,,,null,null,stimuli/FAS_J1M-BKBR-05-06.wav,,,,,,,,,,,,,,,,,,,,
html-keyboard-response,207,513529,0.0-12.0-3.20,,,,,,null,null,"
        <p style= ""white-space: nowrap;text-align: center; padding: 20px; background-color: lightgray;"">
        The content of this audio is _<strong>A boy fell from the window.</strong>_ 
        </p>",,,,,,,,,,,,,,,,,,,,
audio-keyboard-response,208,515203,0.0-12.0-4.20,,,,,,null,null,stimuli/FAS_J2M-BKBR-05-06.wav,,,,,,,,,,,,,,,,,,,,
html-keyboard-response,209,516377,0.0-12.0-5.20,,,,,,1172,j,"
        <p style= ""white-space: nowrap;text-align: center; padding: 20px; background-color: lightgray;"">
        The content of the audio is_<strong>A boy fell from the window.</strong>_ 
        </p>
    <p style=""width: 100%""> 
    Press <span style=""background-color: yellow;"">[ F ] key</span> if the accents are different. Press <span style=""background-color: yellow;"">[ J ] key</span> if the accents are the same.
    <u>Please press the key accordingly.</u>
    </p>",,,,,,,,,,,,sentence,,70,JJ,j,BKB,A boy fell from the window.,stimuli/FAS_J1M-BKBR-05-06.wav,stimuli/FAS_J2M-BKBR-05-06.wav
html-keyboard-response,210,517389,0.0-12.0-0.21,,,,,,null,null,"<h1 style= ""font-size: 50px"">+
    </h1>",,,,,,,,,,,,,,,,,,,,
html-keyboard-response,211,517900,0.0-12.0-1.21,,,,,,null,null,"
            <p style= ""white-space: nowrap;text-align: center; padding: 20px; background-color: lightgray;"">
            The content of this audio is _<strong>They went on vacation.</strong>_ 
            </p>",,,,,,,,,,,,,,,,,,,,
audio-keyboard-response,212,519763,0.0-12.0-2.21,,,,,,null,null,stimuli/FAS_K7M-HINT-05-08.wav,,,,,,,,,,,,,,,,,,,,
html-keyboard-response,213,520270,0.0-12.0-3.21,,,,,,null,null,"
        <p style= ""white-space: nowrap;text-align: center; padding: 20px; background-color: lightgray;"">
        The content of this audio is _<strong>They went on vacation.</strong>_ 
        </p>",,,,,,,,,,,,,,,,,,,,
audio-keyboard-response,214,521782,0.0-12.0-4.21,,,,,,null,null,stimuli/FAS_E5M-HINT-05-08.wav,,,,,,,,,,,,,,,,,,,,
html-keyboard-response,215,522445,0.0-12.0-5.21,,,,,,661,f,"
        <p style= ""white-space: nowrap;text-align: center; padding: 20px; background-color: lightgray;"">
        The content of the audio is_<strong>They went on vacation.</strong>_ 
        </p>
    <p style=""width: 100%""> 
    Press <span style=""background-color: yellow;"">[ F ] key</span> if the accents are different. Press <span style=""background-color: yellow;"">[ J ] key</span> if the accents are the same.
    <u>Please press the key accordingly.</u>
    </p>",,,,,,,,,,,,sentence,,140,EK,f,HINT,They went on vacation.,stimuli/FAS_K7M-HINT-05-08.wav,stimuli/FAS_E5M-HINT-05-08.wav
html-keyboard-response,216,523449,0.0-12.0-0.22,,,,,,null,null,"<h1 style= ""font-size: 50px"">+
    </h1>",,,,,,,,,,,,,,,,,,,,
html-keyboard-response,217,523959,0.0-12.0-1.22,,,,,,null,null,"
            <p style= ""white-space: nowrap;text-align: center; padding: 20px; background-color: lightgray;"">
            The content of this audio is _<strong>The wife helped her husband.</strong>_ 
            </p>",,,,,,,,,,,,,,,,,,,,
audio-keyboard-response,218,525782,0.0-12.0-2.22,,,,,,null,null,stimuli/FAS_J2M-BKBR-04-01.wav,,,,,,,,,,,,,,,,,,,,
html-keyboard-response,219,526289,0.0-12.0-3.22,,,,,,null,null,"
        <p style= ""white-space: nowrap;text-align: center; padding: 20px; background-color: lightgray;"">
        The content of this audio is _<strong>The wife helped her husband.</strong>_ 
        </p>",,,,,,,,,,,,,,,,,,,,
audio-keyboard-response,220,528162,0.0-12.0-4.22,,,,,,null,null,stimuli/FAS_J1M-BKBR-04-01.wav,,,,,,,,,,,,,,,,,,,,
html-keyboard-response,221,528383,0.0-12.0-5.22,,,,,,219,f,"
        <p style= ""white-space: nowrap;text-align: center; padding: 20px; background-color: lightgray;"">
        The content of the audio is_<strong>The wife helped her husband.</strong>_ 
        </p>
    <p style=""width: 100%""> 
    Press <span style=""background-color: yellow;"">[ F ] key</span> if the accents are different. Press <span style=""background-color: yellow;"">[ J ] key</span> if the accents are the same.
    <u>Please press the key accordingly.</u>
    </p>",,,,,,,,,,,,sentence,,49,JJ,j,BKB,The wife helped her husband.,stimuli/FAS_J2M-BKBR-04-01.wav,stimuli/FAS_J1M-BKBR-04-01.wav
html-keyboard-response,222,529389,0.0-12.0-0.23,,,,,,null,null,"<h1 style= ""font-size: 50px"">+
    </h1>",,,,,,,,,,,,,,,,,,,,
html-keyboard-response,223,529899,0.0-12.0-1.23,,,,,,null,null,"
            <p style= ""white-space: nowrap;text-align: center; padding: 20px; background-color: lightgray;"">
            The content of this audio is _<strong>Somebody took the money.</strong>_ 
            </p>",,,,,,,,,,,,,,,,,,,,
audio-keyboard-response,224,531563,0.0-12.0-2.23,,,,,,null,null,stimuli/FAS_K9M-BKBR-05-12.wav,,,,,,,,,,,,,,,,,,,,
html-keyboard-response,225,532069,0.0-12.0-3.23,,,,,,null,null,"
        <p style= ""white-space: nowrap;text-align: center; padding: 20px; background-color: lightgray;"">
        The content of this audio is _<strong>Somebody took the money.</strong>_ 
        </p>",,,,,,,,,,,,,,,,,,,,
audio-keyboard-response,226,533702,0.0-12.0-4.23,,,,,,null,null,stimuli/FAS_K7M-BKBR-05-12.wav,,,,,,,,,,,,,,,,,,,,
html-keyboard-response,227,534305,0.0-12.0-5.23,,,,,,601,j,"
        <p style= ""white-space: nowrap;text-align: center; padding: 20px; background-color: lightgray;"">
        The content of the audio is_<strong>Somebody took the money.</strong>_ 
        </p>
    <p style=""width: 100%""> 
    Press <span style=""background-color: yellow;"">[ F ] key</span> if the accents are different. Press <span style=""background-color: yellow;"">[ J ] key</span> if the accents are the same.
    <u>Please press the key accordingly.</u>
    </p>",,,,,,,,,,,,sentence,,76,KK,j,BKB,Somebody took the money.,stimuli/FAS_K9M-BKBR-05-12.wav,stimuli/FAS_K7M-BKBR-05-12.wav
html-keyboard-response,228,535309,0.0-12.0-0.24,,,,,,null,null,"<h1 style= ""font-size: 50px"">+
    </h1>",,,,,,,,,,,,,,,,,,,,
html-keyboard-response,229,535820,0.0-12.0-1.24,,,,,,null,null,"
            <p style= ""white-space: nowrap;text-align: center; padding: 20px; background-color: lightgray;"">
            The content of this audio is _<strong>Father looked at the book.</strong>_ 
            </p>",,,,,,,,,,,,,,,,,,,,
audio-keyboard-response,230,537943,0.0-12.0-2.24,,,,,,null,null,stimuli/FAS_M1M-BKBR-03-13.wav,,,,,,,,,,,,,,,,,,,,
html-keyboard-response,231,538449,0.0-12.0-3.24,,,,,,null,null,"
        <p style= ""white-space: nowrap;text-align: center; padding: 20px; background-color: lightgray;"">
        The content of this audio is _<strong>Father looked at the book.</strong>_ 
        </p>",,,,,,,,,,,,,,,,,,,,
audio-keyboard-response,232,540003,0.0-12.0-4.24,,,,,,null,null,stimuli/FAS_M6M-BKBR-03-13.wav,,,,,,,,,,,,,,,,,,,,
html-keyboard-response,233,540078,0.0-12.0-5.24,,,,,,73,j,"
        <p style= ""white-space: nowrap;text-align: center; padding: 20px; background-color: lightgray;"">
        The content of the audio is_<strong>Father looked at the book.</strong>_ 
        </p>
    <p style=""width: 100%""> 
    Press <span style=""background-color: yellow;"">[ F ] key</span> if the accents are different. Press <span style=""background-color: yellow;"">[ J ] key</span> if the accents are the same.
    <u>Please press the key accordingly.</u>
    </p>",,,,,,,,,,,,sentence,,45,MM,j,BKB,Father looked at the book.,stimuli/FAS_M1M-BKBR-03-13.wav,stimuli/FAS_M6M-BKBR-03-13.wav
html-keyboard-response,234,541090,0.0-12.0-0.25,,,,,,null,null,"<h1 style= ""font-size: 50px"">+
    </h1>",,,,,,,,,,,,,,,,,,,,
html-keyboard-response,235,541599,0.0-12.0-1.25,,,,,,null,null,"
            <p style= ""white-space: nowrap;text-align: center; padding: 20px; background-color: lightgray;"">
            The content of this audio is _<strong>She found her purse in the trash.</strong>_ 
            </p>",,,,,,,,,,,,,,,,,,,,
audio-keyboard-response,236,543643,0.0-12.0-2.25,,,,,,null,null,stimuli/FAS_M6M-HINT-07-08.wav,,,,,,,,,,,,,,,,,,,,
html-keyboard-response,237,544149,0.0-12.0-3.25,,,,,,null,null,"
        <p style= ""white-space: nowrap;text-align: center; padding: 20px; background-color: lightgray;"">
        The content of this audio is _<strong>She found her purse in the trash.</strong>_ 
        </p>",,,,,,,,,,,,,,,,,,,,
audio-keyboard-response,238,546063,0.0-12.0-4.25,,,,,,null,null,stimuli/FAS_J2M-HINT-07-08.wav,,,,,,,,,,,,,,,,,,,,
html-keyboard-response,239,546226,0.0-12.0-5.25,,,,,,161,j,"
        <p style= ""white-space: nowrap;text-align: center; padding: 20px; background-color: lightgray;"">
        The content of the audio is_<strong>She found her purse in the trash.</strong>_ 
        </p>
    <p style=""width: 100%""> 
    Press <span style=""background-color: yellow;"">[ F ] key</span> if the accents are different. Press <span style=""background-color: yellow;"">[ J ] key</span> if the accents are the same.
    <u>Please press the key accordingly.</u>
    </p>",,,,,,,,,,,,sentence,,160,MJ,f,HINT,She found her purse in the trash.,stimuli/FAS_M6M-HINT-07-08.wav,stimuli/FAS_J2M-HINT-07-08.wav
html-keyboard-response,240,547229,0.0-12.0-0.26,,,,,,null,null,"<h1 style= ""font-size: 50px"">+
    </h1>",,,,,,,,,,,,,,,,,,,,
html-keyboard-response,241,547739,0.0-12.0-1.26,,,,,,null,null,"
            <p style= ""white-space: nowrap;text-align: center; padding: 20px; background-color: lightgray;"">
            The content of this audio is _<strong>The house had a nice garden.</strong>_ 
            </p>",,,,,,,,,,,,,,,,,,,,
audio-keyboard-response,242,549562,0.0-12.0-2.26,,,,,,null,null,stimuli/FAS_J1M-BKBR-04-05.wav,,,,,,,,,,,,,,,,,,,,
html-keyboard-response,243,550070,0.0-12.0-3.26,,,,,,null,null,"
        <p style= ""white-space: nowrap;text-align: center; padding: 20px; background-color: lightgray;"">
        The content of this audio is _<strong>The house had a nice garden.</strong>_ 
        </p>",,,,,,,,,,,,,,,,,,,,
audio-keyboard-response,244,551643,0.0-12.0-4.26,,,,,,null,null,stimuli/FAS_J2M-BKBR-04-05.wav,,,,,,,,,,,,,,,,,,,,
html-keyboard-response,245,552391,0.0-12.0-5.26,,,,,,746,f,"
        <p style= ""white-space: nowrap;text-align: center; padding: 20px; background-color: lightgray;"">
        The content of the audio is_<strong>The house had a nice garden.</strong>_ 
        </p>
    <p style=""width: 100%""> 
    Press <span style=""background-color: yellow;"">[ F ] key</span> if the accents are different. Press <span style=""background-color: yellow;"">[ J ] key</span> if the accents are the same.
    <u>Please press the key accordingly.</u>
    </p>",,,,,,,,,,,,sentence,,53,JJ,j,BKB,The house had a nice garden.,stimuli/FAS_J1M-BKBR-04-05.wav,stimuli/FAS_J2M-BKBR-04-05.wav
html-keyboard-response,246,553399,0.0-12.0-0.27,,,,,,null,null,"<h1 style= ""font-size: 50px"">+
    </h1>",,,,,,,,,,,,,,,,,,,,
html-keyboard-response,247,553909,0.0-12.0-1.27,,,,,,null,null,"
            <p style= ""white-space: nowrap;text-align: center; padding: 20px; background-color: lightgray;"">
            The content of this audio is _<strong>Some sticks were under the tree.</strong>_ 
            </p>",,,,,,,,,,,,,,,,,,,,
audio-keyboard-response,248,556022,0.0-12.0-2.27,,,,,,null,null,stimuli/FAS_M6M-BKBR-02-13.wav,,,,,,,,,,,,,,,,,,,,
html-keyboard-response,249,556529,0.0-12.0-3.27,,,,,,null,null,"
        <p style= ""white-space: nowrap;text-align: center; padding: 20px; background-color: lightgray;"">
        The content of this audio is _<strong>Some sticks were under the tree.</strong>_ 
        </p>",,,,,,,,,,,,,,,,,,,,
audio-keyboard-response,250,558603,0.0-12.0-4.27,,,,,,null,null,stimuli/FAS_M1M-BKBR-02-13.wav,,,,,,,,,,,,,,,,,,,,
html-keyboard-response,251,560520,0.0-12.0-5.27,,,,,,1915,j,"
        <p style= ""white-space: nowrap;text-align: center; padding: 20px; background-color: lightgray;"">
        The content of the audio is_<strong>Some sticks were under the tree.</strong>_ 
        </p>
    <p style=""width: 100%""> 
    Press <span style=""background-color: yellow;"">[ F ] key</span> if the accents are different. Press <span style=""background-color: yellow;"">[ J ] key</span> if the accents are the same.
    <u>Please press the key accordingly.</u>
    </p>",,,,,,,,,,,,sentence,,29,MM,j,BKB,Some sticks were under the tree.,stimuli/FAS_M6M-BKBR-02-13.wav,stimuli/FAS_M1M-BKBR-02-13.wav
html-keyboard-response,252,561530,0.0-12.0-0.28,,,,,,null,null,"<h1 style= ""font-size: 50px"">+
    </h1>",,,,,,,,,,,,,,,,,,,,
html-keyboard-response,253,562039,0.0-12.0-1.28,,,,,,null,null,"
            <p style= ""white-space: nowrap;text-align: center; padding: 20px; background-color: lightgray;"">
            The content of this audio is _<strong>The team is playing well.</strong>_ 
            </p>",,,,,,,,,,,,,,,,,,,,
audio-keyboard-response,254,564041,0.0-12.0-2.28,,,,,,null,null,stimuli/FAS_J1M-HINT-03-10.wav,,,,,,,,,,,,,,,,,,,,
html-keyboard-response,255,564549,0.0-12.0-3.28,,,,,,null,null,"
        <p style= ""white-space: nowrap;text-align: center; padding: 20px; background-color: lightgray;"">
        The content of this audio is _<strong>The team is playing well.</strong>_ 
        </p>",,,,,,,,,,,,,,,,,,,,
audio-keyboard-response,256,566143,0.0-12.0-4.28,,,,,,null,null,stimuli/FAS_E5M-HINT-03-10.wav,,,,,,,,,,,,,,,,,,,,
html-keyboard-response,257,566856,0.0-12.0-5.28,,,,,,711,f,"
        <p style= ""white-space: nowrap;text-align: center; padding: 20px; background-color: lightgray;"">
        The content of the audio is_<strong>The team is playing well.</strong>_ 
        </p>
    <p style=""width: 100%""> 
    Press <span style=""background-color: yellow;"">[ F ] key</span> if the accents are different. Press <span style=""background-color: yellow;"">[ J ] key</span> if the accents are the same.
    <u>Please press the key accordingly.</u>
    </p>",,,,,,,,,,,,sentence,,122,EJ,f,HINT,The team is playing well.,stimuli/FAS_J1M-HINT-03-10.wav,stimuli/FAS_E5M-HINT-03-10.wav
html-keyboard-response,258,567860,0.0-12.0-0.29,,,,,,null,null,"<h1 style= ""font-size: 50px"">+
    </h1>",,,,,,,,,,,,,,,,,,,,
html-keyboard-response,259,568370,0.0-12.0-1.29,,,,,,null,null,"
            <p style= ""white-space: nowrap;text-align: center; padding: 20px; background-color: lightgray;"">
            The content of this audio is _<strong>She spoke to her son.</strong>_ 
            </p>",,,,,,,,,,,,,,,,,,,,
audio-keyboard-response,260,569783,0.0-12.0-2.29,,,,,,null,null,stimuli/FAS_J2M-BKBR-04-06.wav,,,,,,,,,,,,,,,,,,,,
html-keyboard-response,261,570290,0.0-12.0-3.29,,,,,,null,null,"
        <p style= ""white-space: nowrap;text-align: center; padding: 20px; background-color: lightgray;"">
        The content of this audio is _<strong>She spoke to her son.</strong>_ 
        </p>",,,,,,,,,,,,,,,,,,,,
audio-keyboard-response,262,572122,0.0-12.0-4.29,,,,,,null,null,stimuli/FAS_J1M-BKBR-04-06.wav,,,,,,,,,,,,,,,,,,,,
html-keyboard-response,263,572230,0.0-12.0-5.29,,,,,,105,f,"
        <p style= ""white-space: nowrap;text-align: center; padding: 20px; background-color: lightgray;"">
        The content of the audio is_<strong>She spoke to her son.</strong>_ 
        </p>
    <p style=""width: 100%""> 
    Press <span style=""background-color: yellow;"">[ F ] key</span> if the accents are different. Press <span style=""background-color: yellow;"">[ J ] key</span> if the accents are the same.
    <u>Please press the key accordingly.</u>
    </p>",,,,,,,,,,,,sentence,,54,JJ,j,BKB,She spoke to her son.,stimuli/FAS_J2M-BKBR-04-06.wav,stimuli/FAS_J1M-BKBR-04-06.wav
html-keyboard-response,264,573239,0.0-12.0-0.30,,,,,,null,null,"<h1 style= ""font-size: 50px"">+
    </h1>",,,,,,,,,,,,,,,,,,,,
html-keyboard-response,265,573750,0.0-12.0-1.30,,,,,,null,null,"
            <p style= ""white-space: nowrap;text-align: center; padding: 20px; background-color: lightgray;"">
            The content of this audio is _<strong>Her shoes were very dirty.</strong>_ 
            </p>",,,,,,,,,,,,,,,,,,,,
audio-keyboard-response,266,575663,0.0-12.0-2.30,,,,,,null,null,stimuli/FAS_K9M-HINT-01-04.wav,,,,,,,,,,,,,,,,,,,,
html-keyboard-response,267,576170,0.0-12.0-3.30,,,,,,null,null,"
        <p style= ""white-space: nowrap;text-align: center; padding: 20px; background-color: lightgray;"">
        The content of this audio is _<strong>Her shoes were very dirty.</strong>_ 
        </p>",,,,,,,,,,,,,,,,,,,,
audio-keyboard-response,268,578442,0.0-12.0-4.30,,,,,,null,null,stimuli/FAS_K7M-HINT-01-04.wav,,,,,,,,,,,,,,,,,,,,
html-keyboard-response,269,578561,0.0-12.0-5.30,,,,,,116,j,"
        <p style= ""white-space: nowrap;text-align: center; padding: 20px; background-color: lightgray;"">
        The content of the audio is_<strong>Her shoes were very dirty.</strong>_ 
        </p>
    <p style=""width: 100%""> 
    Press <span style=""background-color: yellow;"">[ F ] key</span> if the accents are different. Press <span style=""background-color: yellow;"">[ J ] key</span> if the accents are the same.
    <u>Please press the key accordingly.</u>
    </p>",,,,,,,,,,,,sentence,,96,KK,j,HINT,Her shoes were very dirty.,stimuli/FAS_K9M-HINT-01-04.wav,stimuli/FAS_K7M-HINT-01-04.wav
html-keyboard-response,270,579569,0.0-12.0-0.31,,,,,,null,null,"<h1 style= ""font-size: 50px"">+
    </h1>",,,,,,,,,,,,,,,,,,,,
html-keyboard-response,271,580079,0.0-12.0-1.31,,,,,,null,null,"
            <p style= ""white-space: nowrap;text-align: center; padding: 20px; background-color: lightgray;"">
            The content of this audio is _<strong>There was a bad train wreck.</strong>_ 
            </p>",,,,,,,,,,,,,,,,,,,,
audio-keyboard-response,272,582022,0.0-12.0-2.31,,,,,,null,null,stimuli/FAS_K9M-HINT-10-10.wav,,,,,,,,,,,,,,,,,,,,
html-keyboard-response,273,582529,0.0-12.0-3.31,,,,,,null,null,"
        <p style= ""white-space: nowrap;text-align: center; padding: 20px; background-color: lightgray;"">
        The content of this audio is _<strong>There was a bad train wreck.</strong>_ 
        </p>",,,,,,,,,,,,,,,,,,,,
audio-keyboard-response,274,584261,0.0-12.0-4.31,,,,,,null,null,stimuli/FAS_J2M-HINT-10-10.wav,,,,,,,,,,,,,,,,,,,,
html-keyboard-response,275,585333,0.0-12.0-5.31,,,,,,1071,f,"
        <p style= ""white-space: nowrap;text-align: center; padding: 20px; background-color: lightgray;"">
        The content of the audio is_<strong>There was a bad train wreck.</strong>_ 
        </p>
    <p style=""width: 100%""> 
    Press <span style=""background-color: yellow;"">[ F ] key</span> if the accents are different. Press <span style=""background-color: yellow;"">[ J ] key</span> if the accents are the same.
    <u>Please press the key accordingly.</u>
    </p>",,,,,,,,,,,,sentence,,192,JK,f,HINT,There was a bad train wreck.,stimuli/FAS_K9M-HINT-10-10.wav,stimuli/FAS_J2M-HINT-10-10.wav
html-keyboard-response,276,586339,0.0-12.0-0.32,,,,,,null,null,"<h1 style= ""font-size: 50px"">+
    </h1>",,,,,,,,,,,,,,,,,,,,
html-keyboard-response,277,586849,0.0-12.0-1.32,,,,,,null,null,"
            <p style= ""white-space: nowrap;text-align: center; padding: 20px; background-color: lightgray;"">
            The content of this audio is _<strong>They're clearing the table.</strong>_ 
            </p>",,,,,,,,,,,,,,,,,,,,
audio-keyboard-response,278,588422,0.0-12.0-2.32,,,,,,null,null,stimuli/FAS_M1M-HINT-08-04.wav,,,,,,,,,,,,,,,,,,,,
html-keyboard-response,279,588929,0.0-12.0-3.32,,,,,,null,null,"
        <p style= ""white-space: nowrap;text-align: center; padding: 20px; background-color: lightgray;"">
        The content of this audio is _<strong>They're clearing the table.</strong>_ 
        </p>",,,,,,,,,,,,,,,,,,,,
audio-keyboard-response,280,590763,0.0-12.0-4.32,,,,,,null,null,stimuli/FAS_K9M-HINT-08-04.wav,,,,,,,,,,,,,,,,,,,,
html-keyboard-response,281,591422,0.0-12.0-5.32,,,,,,657,j,"
        <p style= ""white-space: nowrap;text-align: center; padding: 20px; background-color: lightgray;"">
        The content of the audio is_<strong>They're clearing the table.</strong>_ 
        </p>
    <p style=""width: 100%""> 
    Press <span style=""background-color: yellow;"">[ F ] key</span> if the accents are different. Press <span style=""background-color: yellow;"">[ J ] key</span> if the accents are the same.
    <u>Please press the key accordingly.</u>
    </p>",,,,,,,,,,,,sentence,,166,MK,f,HINT,They're clearing the table.,stimuli/FAS_M1M-HINT-08-04.wav,stimuli/FAS_K9M-HINT-08-04.wav
html-keyboard-response,282,592429,0.0-12.0-0.33,,,,,,null,null,"<h1 style= ""font-size: 50px"">+
    </h1>",,,,,,,,,,,,,,,,,,,,
html-keyboard-response,283,592939,0.0-12.0-1.33,,,,,,null,null,"
            <p style= ""white-space: nowrap;text-align: center; padding: 20px; background-color: lightgray;"">
            The content of this audio is _<strong>The rain came pouring down.</strong>_ 
            </p>",,,,,,,,,,,,,,,,,,,,
audio-keyboard-response,284,595603,0.0-12.0-2.33,,,,,,null,null,stimuli/FAS_M1M-HINT-08-02.wav,,,,,,,,,,,,,,,,,,,,
html-keyboard-response,285,596110,0.0-12.0-3.33,,,,,,null,null,"
        <p style= ""white-space: nowrap;text-align: center; padding: 20px; background-color: lightgray;"">
        The content of this audio is _<strong>The rain came pouring down.</strong>_ 
        </p>",,,,,,,,,,,,,,,,,,,,
audio-keyboard-response,286,598643,0.0-12.0-4.33,,,,,,null,null,stimuli/FAS_K7M-HINT-08-02.wav,,,,,,,,,,,,,,,,,,,,
html-keyboard-response,287,599244,0.0-12.0-5.33,,,,,,599,j,"
        <p style= ""white-space: nowrap;text-align: center; padding: 20px; background-color: lightgray;"">
        The content of the audio is_<strong>The rain came pouring down.</strong>_ 
        </p>
    <p style=""width: 100%""> 
    Press <span style=""background-color: yellow;"">[ F ] key</span> if the accents are different. Press <span style=""background-color: yellow;"">[ J ] key</span> if the accents are the same.
    <u>Please press the key accordingly.</u>
    </p>",,,,,,,,,,,,sentence,,164,MK,f,HINT,The rain came pouring down.,stimuli/FAS_M1M-HINT-08-02.wav,stimuli/FAS_K7M-HINT-08-02.wav
html-keyboard-response,288,600249,0.0-12.0-0.34,,,,,,null,null,"<h1 style= ""font-size: 50px"">+
    </h1>",,,,,,,,,,,,,,,,,,,,
html-keyboard-response,289,600759,0.0-12.0-1.34,,,,,,null,null,"
            <p style= ""white-space: nowrap;text-align: center; padding: 20px; background-color: lightgray;"">
            The content of this audio is _<strong>The cook cut some onions.</strong>_ 
            </p>",,,,,,,,,,,,,,,,,,,,
audio-keyboard-response,290,604223,0.0-12.0-2.34,,,,,,null,null,stimuli/FAS_K7M-BKBR-05-09.wav,,,,,,,,,,,,,,,,,,,,
html-keyboard-response,291,604729,0.0-12.0-3.34,,,,,,null,null,"
        <p style= ""white-space: nowrap;text-align: center; padding: 20px; background-color: lightgray;"">
        The content of this audio is _<strong>The cook cut some onions.</strong>_ 
        </p>",,,,,,,,,,,,,,,,,,,,
audio-keyboard-response,292,606863,0.0-12.0-4.34,,,,,,null,null,stimuli/FAS_K9M-BKBR-05-09.wav,,,,,,,,,,,,,,,,,,,,
html-keyboard-response,293,839083,0.0-12.0-5.34,,,,,,232218,f,"
        <p style= ""white-space: nowrap;text-align: center; padding: 20px; background-color: lightgray;"">
        The content of the audio is_<strong>The cook cut some onions.</strong>_ 
        </p>
    <p style=""width: 100%""> 
    Press <span style=""background-color: yellow;"">[ F ] key</span> if the accents are different. Press <span style=""background-color: yellow;"">[ J ] key</span> if the accents are the same.
    <u>Please press the key accordingly.</u>
    </p>",,,,,,,,,,,,sentence,,73,KK,j,BKB,The cook cut some onions.,stimuli/FAS_K7M-BKBR-05-09.wav,stimuli/FAS_K9M-BKBR-05-09.wav
html-keyboard-response,294,840087,0.0-12.0-0.35,,,,,,null,null,"<h1 style= ""font-size: 50px"">+
    </h1>",,,,,,,,,,,,,,,,,,,,
html-keyboard-response,295,840597,0.0-12.0-1.35,,,,,,null,null,"
            <p style= ""white-space: nowrap;text-align: center; padding: 20px; background-color: lightgray;"">
            The content of this audio is _<strong>The book tells a story.</strong>_ 
            </p>",,,,,,,,,,,,,,,,,,,,
audio-keyboard-response,296,842302,0.0-12.0-2.35,,,,,,null,null,stimuli/FAS_J1M-HINT-03-04.wav,,,,,,,,,,,,,,,,,,,,
html-keyboard-response,297,842809,0.0-12.0-3.35,,,,,,null,null,"
        <p style= ""white-space: nowrap;text-align: center; padding: 20px; background-color: lightgray;"">
        The content of this audio is _<strong>The book tells a story.</strong>_ 
        </p>",,,,,,,,,,,,,,,,,,,,
audio-keyboard-response,298,844382,0.0-12.0-4.35,,,,,,null,null,stimuli/FAS_E1M-HINT-03-04.wav,,,,,,,,,,,,,,,,,,,,
html-keyboard-response,299,844460,0.0-12.0-5.35,,,,,,75,f,"
        <p style= ""white-space: nowrap;text-align: center; padding: 20px; background-color: lightgray;"">
        The content of the audio is_<strong>The book tells a story.</strong>_ 
        </p>
    <p style=""width: 100%""> 
    Press <span style=""background-color: yellow;"">[ F ] key</span> if the accents are different. Press <span style=""background-color: yellow;"">[ J ] key</span> if the accents are the same.
    <u>Please press the key accordingly.</u>
    </p>",,,,,,,,,,,,sentence,,116,EJ,f,HINT,The book tells a story.,stimuli/FAS_J1M-HINT-03-04.wav,stimuli/FAS_E1M-HINT-03-04.wav
html-keyboard-response,300,845470,0.0-12.0-0.36,,,,,,null,null,"<h1 style= ""font-size: 50px"">+
    </h1>",,,,,,,,,,,,,,,,,,,,
html-keyboard-response,301,845979,0.0-12.0-1.36,,,,,,null,null,"
            <p style= ""white-space: nowrap;text-align: center; padding: 20px; background-color: lightgray;"">
            The content of this audio is _<strong>The milk is by the front door.</strong>_ 
            </p>",,,,,,,,,,,,,,,,,,,,
audio-keyboard-response,302,847762,0.0-12.0-2.36,,,,,,null,null,stimuli/FAS_J2M-HINT-03-06.wav,,,,,,,,,,,,,,,,,,,,
html-keyboard-response,303,848270,0.0-12.0-3.36,,,,,,null,null,"
        <p style= ""white-space: nowrap;text-align: center; padding: 20px; background-color: lightgray;"">
        The content of this audio is _<strong>The milk is by the front door.</strong>_ 
        </p>",,,,,,,,,,,,,,,,,,,,
audio-keyboard-response,304,850061,0.0-12.0-4.36,,,,,,null,null,stimuli/FAS_E1M-HINT-03-06.wav,,,,,,,,,,,,,,,,,,,,
html-keyboard-response,305,850681,0.0-12.0-5.36,,,,,,618,f,"
        <p style= ""white-space: nowrap;text-align: center; padding: 20px; background-color: lightgray;"">
        The content of the audio is_<strong>The milk is by the front door.</strong>_ 
        </p>
    <p style=""width: 100%""> 
    Press <span style=""background-color: yellow;"">[ F ] key</span> if the accents are different. Press <span style=""background-color: yellow;"">[ J ] key</span> if the accents are the same.
    <u>Please press the key accordingly.</u>
    </p>",,,,,,,,,,,,sentence,,118,EJ,f,HINT,The milk is by the front door.,stimuli/FAS_J2M-HINT-03-06.wav,stimuli/FAS_E1M-HINT-03-06.wav
html-keyboard-response,306,851689,0.0-12.0-0.37,,,,,,null,null,"<h1 style= ""font-size: 50px"">+
    </h1>",,,,,,,,,,,,,,,,,,,,
html-keyboard-response,307,852199,0.0-12.0-1.37,,,,,,null,null,"
            <p style= ""white-space: nowrap;text-align: center; padding: 20px; background-color: lightgray;"">
            The content of this audio is _<strong>She's drinking from her own cup.</strong>_ 
            </p>",,,,,,,,,,,,,,,,,,,,
audio-keyboard-response,308,854783,0.0-12.0-2.37,,,,,,null,null,stimuli/FAS_M1M-HINT-01-08.wav,,,,,,,,,,,,,,,,,,,,
html-keyboard-response,309,855290,0.0-12.0-3.37,,,,,,null,null,"
        <p style= ""white-space: nowrap;text-align: center; padding: 20px; background-color: lightgray;"">
        The content of this audio is _<strong>She's drinking from her own cup.</strong>_ 
        </p>",,,,,,,,,,,,,,,,,,,,
audio-keyboard-response,310,857122,0.0-12.0-4.37,,,,,,null,null,stimuli/FAS_E1M-HINT-01-08.wav,,,,,,,,,,,,,,,,,,,,
html-keyboard-response,311,857378,0.0-12.0-5.37,,,,,,254,j,"
        <p style= ""white-space: nowrap;text-align: center; padding: 20px; background-color: lightgray;"">
        The content of the audio is_<strong>She's drinking from her own cup.</strong>_ 
        </p>
    <p style=""width: 100%""> 
    Press <span style=""background-color: yellow;"">[ F ] key</span> if the accents are different. Press <span style=""background-color: yellow;"">[ J ] key</span> if the accents are the same.
    <u>Please press the key accordingly.</u>
    </p>",,,,,,,,,,,,sentence,,100,EM,f,HINT,She's drinking from her own cup.,stimuli/FAS_M1M-HINT-01-08.wav,stimuli/FAS_E1M-HINT-01-08.wav
html-keyboard-response,312,858379,0.0-12.0-0.38,,,,,,null,null,"<h1 style= ""font-size: 50px"">+
    </h1>",,,,,,,,,,,,,,,,,,,,
html-keyboard-response,313,858890,0.0-12.0-1.38,,,,,,null,null,"
            <p style= ""white-space: nowrap;text-align: center; padding: 20px; background-color: lightgray;"">
            The content of this audio is _<strong>The new road was on the map.</strong>_ 
            </p>",,,,,,,,,,,,,,,,,,,,
audio-keyboard-response,314,860721,0.0-12.0-2.38,,,,,,null,null,stimuli/FAS_J2M-HINT-03-08.wav,,,,,,,,,,,,,,,,,,,,
html-keyboard-response,315,861230,0.0-12.0-3.38,,,,,,null,null,"
        <p style= ""white-space: nowrap;text-align: center; padding: 20px; background-color: lightgray;"">
        The content of this audio is _<strong>The new road was on the map.</strong>_ 
        </p>",,,,,,,,,,,,,,,,,,,,
audio-keyboard-response,316,862882,0.0-12.0-4.38,,,,,,null,null,stimuli/FAS_E1M-HINT-03-08.wav,,,,,,,,,,,,,,,,,,,,
html-keyboard-response,317,864433,0.0-12.0-5.38,,,,,,1548,f,"
        <p style= ""white-space: nowrap;text-align: center; padding: 20px; background-color: lightgray;"">
        The content of the audio is_<strong>The new road was on the map.</strong>_ 
        </p>
    <p style=""width: 100%""> 
    Press <span style=""background-color: yellow;"">[ F ] key</span> if the accents are different. Press <span style=""background-color: yellow;"">[ J ] key</span> if the accents are the same.
    <u>Please press the key accordingly.</u>
    </p>",,,,,,,,,,,,sentence,,120,EJ,f,HINT,The new road was on the map.,stimuli/FAS_J2M-HINT-03-08.wav,stimuli/FAS_E1M-HINT-03-08.wav
html-keyboard-response,318,865439,0.0-12.0-0.39,,,,,,null,null,"<h1 style= ""font-size: 50px"">+
    </h1>",,,,,,,,,,,,,,,,,,,,
html-keyboard-response,319,865950,0.0-12.0-1.39,,,,,,null,null,"
            <p style= ""white-space: nowrap;text-align: center; padding: 20px; background-color: lightgray;"">
            The content of this audio is _<strong>He needs his vacation.</strong>_ 
            </p>",,,,,,,,,,,,,,,,,,,,
audio-keyboard-response,320,867463,0.0-12.0-2.39,,,,,,null,null,stimuli/FAS_E5M-HINT-04-06.wav,,,,,,,,,,,,,,,,,,,,
html-keyboard-response,321,867970,0.0-12.0-3.39,,,,,,null,null,"
        <p style= ""white-space: nowrap;text-align: center; padding: 20px; background-color: lightgray;"">
        The content of this audio is _<strong>He needs his vacation.</strong>_ 
        </p>",,,,,,,,,,,,,,,,,,,,
audio-keyboard-response,322,869662,0.0-12.0-4.39,,,,,,null,null,stimuli/FAS_J2M-HINT-04-06.wav,,,,,,,,,,,,,,,,,,,,
html-keyboard-response,323,870566,0.0-12.0-5.39,,,,,,901,j,"
        <p style= ""white-space: nowrap;text-align: center; padding: 20px; background-color: lightgray;"">
        The content of the audio is_<strong>He needs his vacation.</strong>_ 
        </p>
    <p style=""width: 100%""> 
    Press <span style=""background-color: yellow;"">[ F ] key</span> if the accents are different. Press <span style=""background-color: yellow;"">[ J ] key</span> if the accents are the same.
    <u>Please press the key accordingly.</u>
    </p>",,,,,,,,,,,,sentence,,128,EJ,f,HINT,He needs his vacation.,stimuli/FAS_E5M-HINT-04-06.wav,stimuli/FAS_J2M-HINT-04-06.wav
html-keyboard-response,324,871569,0.0-12.0-0.40,,,,,,null,null,"<h1 style= ""font-size: 50px"">+
    </h1>",,,,,,,,,,,,,,,,,,,,
html-keyboard-response,325,872079,0.0-12.0-1.40,,,,,,null,null,"
            <p style= ""white-space: nowrap;text-align: center; padding: 20px; background-color: lightgray;"">
            The content of this audio is _<strong>The oven door is open.</strong>_ 
            </p>",,,,,,,,,,,,,,,,,,,,
audio-keyboard-response,326,873903,0.0-12.0-2.40,,,,,,null,null,stimuli/FAS_M1M-HINT-06-05.wav,,,,,,,,,,,,,,,,,,,,
html-keyboard-response,327,874409,0.0-12.0-3.40,,,,,,null,null,"
        <p style= ""white-space: nowrap;text-align: center; padding: 20px; background-color: lightgray;"">
        The content of this audio is _<strong>The oven door is open.</strong>_ 
        </p>",,,,,,,,,,,,,,,,,,,,
audio-keyboard-response,328,876102,0.0-12.0-4.40,,,,,,null,null,stimuli/FAS_J1M-HINT-06-05.wav,,,,,,,,,,,,,,,,,,,,
html-keyboard-response,329,876140,0.0-12.0-5.40,,,,,,36,j,"
        <p style= ""white-space: nowrap;text-align: center; padding: 20px; background-color: lightgray;"">
        The content of the audio is_<strong>The oven door is open.</strong>_ 
        </p>
    <p style=""width: 100%""> 
    Press <span style=""background-color: yellow;"">[ F ] key</span> if the accents are different. Press <span style=""background-color: yellow;"">[ J ] key</span> if the accents are the same.
    <u>Please press the key accordingly.</u>
    </p>",,,,,,,,,,,,sentence,,147,MJ,f,HINT,The oven door is open.,stimuli/FAS_M1M-HINT-06-05.wav,stimuli/FAS_J1M-HINT-06-05.wav
html-keyboard-response,330,877149,0.0-12.0-0.41,,,,,,null,null,"<h1 style= ""font-size: 50px"">+
    </h1>",,,,,,,,,,,,,,,,,,,,
html-keyboard-response,331,877659,0.0-12.0-1.41,,,,,,null,null,"
            <p style= ""white-space: nowrap;text-align: center; padding: 20px; background-color: lightgray;"">
            The content of this audio is _<strong>The grocery sells butter.</strong>_ 
            </p>",,,,,,,,,,,,,,,,,,,,
audio-keyboard-response,332,879482,0.0-12.0-2.41,,,,,,null,null,stimuli/FAS_K9M-HINT-05-04.wav,,,,,,,,,,,,,,,,,,,,
html-keyboard-response,333,879989,0.0-12.0-3.41,,,,,,null,null,"
        <p style= ""white-space: nowrap;text-align: center; padding: 20px; background-color: lightgray;"">
        The content of this audio is _<strong>The grocery sells butter.</strong>_ 
        </p>",,,,,,,,,,,,,,,,,,,,
audio-keyboard-response,334,881463,0.0-12.0-4.41,,,,,,null,null,stimuli/FAS_E1M-HINT-05-04.wav,,,,,,,,,,,,,,,,,,,,
html-keyboard-response,335,881520,0.0-12.0-5.41,,,,,,55,f,"
        <p style= ""white-space: nowrap;text-align: center; padding: 20px; background-color: lightgray;"">
        The content of the audio is_<strong>The grocery sells butter.</strong>_ 
        </p>
    <p style=""width: 100%""> 
    Press <span style=""background-color: yellow;"">[ F ] key</span> if the accents are different. Press <span style=""background-color: yellow;"">[ J ] key</span> if the accents are the same.
    <u>Please press the key accordingly.</u>
    </p>",,,,,,,,,,,,sentence,,136,EK,f,HINT,The grocery sells butter.,stimuli/FAS_K9M-HINT-05-04.wav,stimuli/FAS_E1M-HINT-05-04.wav
html-keyboard-response,336,882530,0.0-12.0-0.42,,,,,,null,null,"<h1 style= ""font-size: 50px"">+
    </h1>",,,,,,,,,,,,,,,,,,,,
html-keyboard-response,337,883039,0.0-12.0-1.42,,,,,,null,null,"
            <p style= ""white-space: nowrap;text-align: center; padding: 20px; background-color: lightgray;"">
            The content of this audio is _<strong>The old gloves are dirty.</strong>_ 
            </p>",,,,,,,,,,,,,,,,,,,,
audio-keyboard-response,338,884543,0.0-12.0-2.42,,,,,,null,null,stimuli/FAS_E1M-BKBR-02-04.wav,,,,,,,,,,,,,,,,,,,,
html-keyboard-response,339,885050,0.0-12.0-3.42,,,,,,null,null,"
        <p style= ""white-space: nowrap;text-align: center; padding: 20px; background-color: lightgray;"">
        The content of this audio is _<strong>The old gloves are dirty.</strong>_ 
        </p>",,,,,,,,,,,,,,,,,,,,
audio-keyboard-response,340,886502,0.0-12.0-4.42,,,,,,null,null,stimuli/FAS_E5M-BKBR-02-04.wav,,,,,,,,,,,,,,,,,,,,
html-keyboard-response,341,886606,0.0-12.0-5.42,,,,,,101,j,"
        <p style= ""white-space: nowrap;text-align: center; padding: 20px; background-color: lightgray;"">
        The content of the audio is_<strong>The old gloves are dirty.</strong>_ 
        </p>
    <p style=""width: 100%""> 
    Press <span style=""background-color: yellow;"">[ F ] key</span> if the accents are different. Press <span style=""background-color: yellow;"">[ J ] key</span> if the accents are the same.
    <u>Please press the key accordingly.</u>
    </p>",,,,,,,,,,,,sentence,,20,EE,j,BKB,The old gloves are dirty.,stimuli/FAS_E1M-BKBR-02-04.wav,stimuli/FAS_E5M-BKBR-02-04.wav
html-keyboard-response,342,887609,0.0-12.0-0.43,,,,,,null,null,"<h1 style= ""font-size: 50px"">+
    </h1>",,,,,,,,,,,,,,,,,,,,
html-keyboard-response,343,888119,0.0-12.0-1.43,,,,,,null,null,"
            <p style= ""white-space: nowrap;text-align: center; padding: 20px; background-color: lightgray;"">
            The content of this audio is _<strong>Lemons grow on trees.</strong>_ 
            </p>",,,,,,,,,,,,,,,,,,,,
audio-keyboard-response,344,890143,0.0-12.0-2.43,,,,,,null,null,stimuli/FAS_J1M-BKBR-04-08.wav,,,,,,,,,,,,,,,,,,,,
html-keyboard-response,345,890650,0.0-12.0-3.43,,,,,,null,null,"
        <p style= ""white-space: nowrap;text-align: center; padding: 20px; background-color: lightgray;"">
        The content of this audio is _<strong>Lemons grow on trees.</strong>_ 
        </p>",,,,,,,,,,,,,,,,,,,,
audio-keyboard-response,346,892282,0.0-12.0-4.43,,,,,,null,null,stimuli/FAS_J2M-BKBR-04-08.wav,,,,,,,,,,,,,,,,,,,,
html-keyboard-response,347,1287827,0.0-12.0-5.43,,,,,,395542,f,"
        <p style= ""white-space: nowrap;text-align: center; padding: 20px; background-color: lightgray;"">
        The content of the audio is_<strong>Lemons grow on trees.</strong>_ 
        </p>
    <p style=""width: 100%""> 
    Press <span style=""background-color: yellow;"">[ F ] key</span> if the accents are different. Press <span style=""background-color: yellow;"">[ J ] key</span> if the accents are the same.
    <u>Please press the key accordingly.</u>
    </p>",,,,,,,,,,,,sentence,,56,JJ,j,BKB,Lemons grow on trees.,stimuli/FAS_J1M-BKBR-04-08.wav,stimuli/FAS_J2M-BKBR-04-08.wav
html-keyboard-response,348,1288847,0.0-12.0-0.44,,,,,,null,null,"<h1 style= ""font-size: 50px"">+
    </h1>",,,,,,,,,,,,,,,,,,,,
html-keyboard-response,349,1289349,0.0-12.0-1.44,,,,,,null,null,"
            <p style= ""white-space: nowrap;text-align: center; padding: 20px; background-color: lightgray;"">
            The content of this audio is _<strong>The lady went to the store.</strong>_ 
            </p>",,,,,,,,,,,,,,,,,,,,
audio-keyboard-response,350,1292065,0.0-12.0-2.44,,,,,,null,null,stimuli/FAS_K7M-BKBR-06-06.wav,,,,,,,,,,,,,,,,,,,,
html-keyboard-response,351,1292574,0.0-12.0-3.44,,,,,,null,null,"
        <p style= ""white-space: nowrap;text-align: center; padding: 20px; background-color: lightgray;"">
        The content of this audio is _<strong>The lady went to the store.</strong>_ 
        </p>",,,,,,,,,,,,,,,,,,,,
audio-keyboard-response,352,1294266,0.0-12.0-4.44,,,,,,null,null,stimuli/FAS_K9M-BKBR-06-06.wav,,,,,,,,,,,,,,,,,,,,
html-keyboard-response,353,1294921,0.0-12.0-5.44,,,,,,652,f,"
        <p style= ""white-space: nowrap;text-align: center; padding: 20px; background-color: lightgray;"">
        The content of the audio is_<strong>The lady went to the store.</strong>_ 
        </p>
    <p style=""width: 100%""> 
    Press <span style=""background-color: yellow;"">[ F ] key</span> if the accents are different. Press <span style=""background-color: yellow;"">[ J ] key</span> if the accents are the same.
    <u>Please press the key accordingly.</u>
    </p>",,,,,,,,,,,,sentence,,86,KK,j,BKB,The lady went to the store.,stimuli/FAS_K7M-BKBR-06-06.wav,stimuli/FAS_K9M-BKBR-06-06.wav
html-keyboard-response,354,1295933,0.0-12.0-0.45,,,,,,null,null,"<h1 style= ""font-size: 50px"">+
    </h1>",,,,,,,,,,,,,,,,,,,,
html-keyboard-response,355,1296454,0.0-12.0-1.45,,,,,,null,null,"
            <p style= ""white-space: nowrap;text-align: center; padding: 20px; background-color: lightgray;"">
            The content of this audio is _<strong>Children like strawberries.</strong>_ 
            </p>",,,,,,,,,,,,,,,,,,,,
audio-keyboard-response,356,1298165,0.0-12.0-2.45,,,,,,null,null,stimuli/FAS_E5M-BKBR-01-04.wav,,,,,,,,,,,,,,,,,,,,
html-keyboard-response,357,1298683,0.0-12.0-3.45,,,,,,null,null,"
        <p style= ""white-space: nowrap;text-align: center; padding: 20px; background-color: lightgray;"">
        The content of this audio is _<strong>Children like strawberries.</strong>_ 
        </p>",,,,,,,,,,,,,,,,,,,,
audio-keyboard-response,358,1300326,0.0-12.0-4.45,,,,,,null,null,stimuli/FAS_E1M-BKBR-01-04.wav,,,,,,,,,,,,,,,,,,,,
html-keyboard-response,359,1301387,0.0-12.0-5.45,,,,,,1060,j,"
        <p style= ""white-space: nowrap;text-align: center; padding: 20px; background-color: lightgray;"">
        The content of the audio is_<strong>Children like strawberries.</strong>_ 
        </p>
    <p style=""width: 100%""> 
    Press <span style=""background-color: yellow;"">[ F ] key</span> if the accents are different. Press <span style=""background-color: yellow;"">[ J ] key</span> if the accents are the same.
    <u>Please press the key accordingly.</u>
    </p>",,,,,,,,,,,,sentence,,4,EE,j,BKB,Children like strawberries.,stimuli/FAS_E5M-BKBR-01-04.wav,stimuli/FAS_E1M-BKBR-01-04.wav
html-keyboard-response,360,1302393,0.0-12.0-0.46,,,,,,null,null,"<h1 style= ""font-size: 50px"">+
    </h1>",,,,,,,,,,,,,,,,,,,,
html-keyboard-response,361,1302904,0.0-12.0-1.46,,,,,,null,null,"
            <p style= ""white-space: nowrap;text-align: center; padding: 20px; background-color: lightgray;"">
            The content of this audio is _<strong>The old man is worried.</strong>_ 
            </p>",,,,,,,,,,,,,,,,,,,,
audio-keyboard-response,362,1304547,0.0-12.0-2.46,,,,,,null,null,stimuli/FAS_J2M-BKBR-04-03.wav,,,,,,,,,,,,,,,,,,,,
html-keyboard-response,363,1305053,0.0-12.0-3.46,,,,,,null,null,"
        <p style= ""white-space: nowrap;text-align: center; padding: 20px; background-color: lightgray;"">
        The content of this audio is _<strong>The old man is worried.</strong>_ 
        </p>",,,,,,,,,,,,,,,,,,,,
audio-keyboard-response,364,1306767,0.0-12.0-4.46,,,,,,null,null,stimuli/FAS_J1M-BKBR-04-03.wav,,,,,,,,,,,,,,,,,,,,
html-keyboard-response,365,1306883,0.0-12.0-5.46,,,,,,115,j,"
        <p style= ""white-space: nowrap;text-align: center; padding: 20px; background-color: lightgray;"">
        The content of the audio is_<strong>The old man is worried.</strong>_ 
        </p>
    <p style=""width: 100%""> 
    Press <span style=""background-color: yellow;"">[ F ] key</span> if the accents are different. Press <span style=""background-color: yellow;"">[ J ] key</span> if the accents are the same.
    <u>Please press the key accordingly.</u>
    </p>",,,,,,,,,,,,sentence,,51,JJ,j,BKB,The old man is worried.,stimuli/FAS_J2M-BKBR-04-03.wav,stimuli/FAS_J1M-BKBR-04-03.wav
