trial_type,trial_index,time_elapsed,internal_node_id,success,timeout,failed_images,failed_audio,failed_video,rt,response,stimulus,width,height,webaudio,browser,browser_version,mobile,os,fullscreen,vsync_rate,webcam,microphone,phase,deviceInfo,itemID,stimulus_type,correct_ans,list,content,sound1,sound2
pavlovia,0,3875,0.0-0.0,,,,,,,,,,,,,,,,,,,,,,,,,,,,
preload,1,67351,0.0-1.0,TRUE,FALSE,[],[],[],,,,,,,,,,,,,,,,,,,,,,,
survey-text,2,101394,0.0-2.0,,,,,,33990,"{""participant_name"":""bethany sims"",""prolific_ID"":""67e087f7b57e53fdcb47acb2""}",,,,,,,,,,,,,,,,,,,,,
html-button-response,3,121570,0.0-3.0-0.0,,,,,,20173,0,"
    <h1>
    Before starting the experiment, please adjust the volume.
    </h1>
    <p>
    Please press the ""Play"" button below and adjust the volume while checking until it reaches an appropriate level.
    </p>
    <audio id=""vol-test-stimulus"" src=""stimuli/word/FAS_E1M-LNTW-01-16.wav""></audio>
    <button id=""play-button"">Play</button>
    <p>
    You can play the audio as many times as you like until the volume suits your preference.
    Once you've adjusted the volume to a level that is the easiest to hear and most comfortable for you.
    Press the button below and enter what you heard on the next page.
    This is just to confirm that you can hear the audio clearly, so it's okay if you make a few mistakes.
    </p>
  ",,,,,,,,,,,,,,,,,,,,
survey-text,4,128881,0.0-3.0-1.0,,,,,,7295,"{""vol-word"":""Dance""}",,,,,,,,,,,,,,,,,,,,,
fullscreen,5,150450,0.0-4.0,TRUE,,,,,,,,,,,,,,,,,,,,,,,,,,,
browser-check,6,151685,0.0-5.0,,,,,,,,,1366,768,TRUE,chrome,132.0.0,FALSE,Windows 10,TRUE,61.93,TRUE,TRUE,,,,,,,,,
html-button-response,7,153693,0.0-6.0,,,,,,null,null,"
    <h1 style = ""font-size: 60px; width: 100%;"">English Pronunciation Perception Experiment</h1>
    ",,,,,,,,,,,,,,,,,,,,
html-button-response,8,187953,0.0-7.0,,,,,,34257,0,"
    <h1>
    Instructions: What will you do in this experiment?
    </h1>
    <p style=""width:100%"">
    In this experiment, two English audio clips will be played as a pair.

    The content of the audio will be displayed slightly earlier.

    While listening to the pair of audio clips and looking at the content,

    if the pair has different accents, press the <span style=""background-color: yellow;"">[ F ] key</span>, 

    if the pair has the same accent, press the <span style=""background-color: yellow;"">[ J ] key</span> 
    <u>as quickly and accurately as possible</u>

    This experiment will record the accuracy and speed of your judgments on whether the pronunciations are the same or different.
    </p>
    ",,,,,,,,,,,,,,,,,,,,
html-button-response,9,235994,0.0-8.0,,,,,,48040,0,"
    <h1>
    Instructions: What is an accented pronunciation?
    </h1>
    <p>
    Your understanding of the following content is crucial to the results of this experiment, so please read it carefully.

    In this experiment, ""accent"" does not refer to the variations in pronunciation among native speakers. Instead, it refers to the ""foreign accent"" of speakers whose native language is different from English. Although native speakers have many regional pronunciation variations, this study focuses on the differences between native and non-native English speakers, as well as differences among non-native speakers whose native languages differ.

    Therefore, a ""pair of English pronunciations with different accents"" refers to:

    - A pair consisting of a native speaker and a non-native speaker, or
    - A pair of non-native speakers whose native languages are different (e.g., Speaker A whose native language is Language A and Speaker B whose native language is Language B).

    If you understand the above explanation, click the button below to proceed to the instructions on the experiment's procedure.
    </p>
    ",,,,,,,,,,,,,,,,,,,,
html-button-response,10,268521,0.0-9.0,,,,,,32525,0,"
    <h1>
    Instructions: Explanation of the Experiment Procedure
    </h1>
    <p>
    The audio will always play immediately after the fixation point (+) is displayed, so please make sure to focus on the fixation point when it appears.

    This pronunciation perception experiment is expected to take approximately 50 minutes to complete.
    There will be one break point during the experiment.
    Feel free to take a break during this time (e.g., closing your eyes, taking deep breaths, etc.).

    To respond quickly, keep your fingers on the [ F ] and [ J ] keys at all times.
    To help you get familiar with the procedure, there are 12 practice questions prepared.
    When you are ready, click the button below to proceed to the practice session.
    </p>
    ",,,,,,,,,,,,intro,"{""userAgent"":""Mozilla/5.0 (Windows NT 10.0; Win64; x64) AppleWebKit/537.36 (KHTML, like Gecko) Chrome/132.0.0.0 Safari/537.36"",""platform"":""Win32"",""language"":""en-US"",""screenResolution"":""1366x768"",""windowSize"":""681x632""}",,,,,,,
html-keyboard-response,11,269524,0.0-10.0-0.0,,,,,,null,null,"<h1 style= ""font-size: 50px"">+
    </h1>",,,,,,,,,,,,,,,,,,,,
html-keyboard-response,12,270027,0.0-10.0-1.0,,,,,,null,null,"
            <p style= ""white-space: nowrap;text-align: center; padding: 20px; background-color: lightgray;"">
            The content of this audio is _<strong>The front yard is pretty.</strong>_ 
            </p>",,,,,,,,,,,,,,,,,,,,
audio-keyboard-response,13,271869,0.0-10.0-2.0,,,,,,null,null,stimuli/FAS_M6M-HINT-P1-03.wav,,,,,,,,,,,,,,,,,,,,
html-keyboard-response,14,272389,0.0-10.0-3.0,,,,,,null,null,"
        <p style= ""white-space: nowrap;text-align: center; padding: 20px; background-color: lightgray;"">
        The content of this audio is _<strong>The front yard is pretty.</strong>_ 
        </p>",,,,,,,,,,,,,,,,,,,,
audio-keyboard-response,15,273970,0.0-10.0-4.0,,,,,,null,null,stimuli/FAS_E5M-HINT-P1-03.wav,,,,,,,,,,,,,,,,,,,,
html-keyboard-response,16,277552,0.0-10.0-5.0,,,,,,3577,f,"
        <p style= ""white-space: nowrap;text-align: center; padding: 20px; background-color: lightgray;"">
        The content of this audio is _<strong>The front yard is pretty.</strong>_ 
        </p>
    <p style=""width: 100%""> 
    Press <span style=""background-color: yellow;"">[ F ] key</span> if the accents are different. Press <span style=""background-color: yellow;"">[ J ] key</span> if the accents are the same.
    <u>Please press the key accordingly.</u>
    </p>",,,,,,,,,,,,practice,,12,EM,f,HINT,The front yard is pretty.,stimuli/FAS_M6M-HINT-P1-03.wav,stimuli/FAS_E5M-HINT-P1-03.wav
html-keyboard-response,17,278559,0.0-10.0-0.1,,,,,,null,null,"<h1 style= ""font-size: 50px"">+
    </h1>",,,,,,,,,,,,,,,,,,,,
html-keyboard-response,18,279080,0.0-10.0-1.1,,,,,,null,null,"
            <p style= ""white-space: nowrap;text-align: center; padding: 20px; background-color: lightgray;"">
            The content of this audio is _<strong>floor</strong>_ 
            </p>",,,,,,,,,,,,,,,,,,,,
audio-keyboard-response,19,279810,0.0-10.0-2.1,,,,,,null,null,stimuli/FAS_E1M-WIPI-01-04.wav,,,,,,,,,,,,,,,,,,,,
html-keyboard-response,20,280319,0.0-10.0-3.1,,,,,,null,null,"
        <p style= ""white-space: nowrap;text-align: center; padding: 20px; background-color: lightgray;"">
        The content of this audio is _<strong>floor</strong>_ 
        </p>",,,,,,,,,,,,,,,,,,,,
audio-keyboard-response,21,281210,0.0-10.0-4.1,,,,,,null,null,stimuli/FAS_M6M-WIPI-01-04.wav,,,,,,,,,,,,,,,,,,,,
html-keyboard-response,22,281893,0.0-10.0-5.1,,,,,,679,f,"
        <p style= ""white-space: nowrap;text-align: center; padding: 20px; background-color: lightgray;"">
        The content of this audio is _<strong>floor</strong>_ 
        </p>
    <p style=""width: 100%""> 
    Press <span style=""background-color: yellow;"">[ F ] key</span> if the accents are different. Press <span style=""background-color: yellow;"">[ J ] key</span> if the accents are the same.
    <u>Please press the key accordingly.</u>
    </p>",,,,,,,,,,,,practice,,4,EM,f,WIPI,floor,stimuli/FAS_E1M-WIPI-01-04.wav,stimuli/FAS_M6M-WIPI-01-04.wav
html-keyboard-response,23,282904,0.0-10.0-0.2,,,,,,null,null,"<h1 style= ""font-size: 50px"">+
    </h1>",,,,,,,,,,,,,,,,,,,,
html-keyboard-response,24,283410,0.0-10.0-1.2,,,,,,null,null,"
            <p style= ""white-space: nowrap;text-align: center; padding: 20px; background-color: lightgray;"">
            The content of this audio is _<strong>school</strong>_ 
            </p>",,,,,,,,,,,,,,,,,,,,
audio-keyboard-response,25,284270,0.0-10.0-2.2,,,,,,null,null,stimuli/FAS_E5M-WIPI-01-01.wav,,,,,,,,,,,,,,,,,,,,
html-keyboard-response,26,284778,0.0-10.0-3.2,,,,,,null,null,"
        <p style= ""white-space: nowrap;text-align: center; padding: 20px; background-color: lightgray;"">
        The content of this audio is _<strong>school</strong>_ 
        </p>",,,,,,,,,,,,,,,,,,,,
audio-keyboard-response,27,285590,0.0-10.0-4.2,,,,,,null,null,stimuli/FAS_E1M-WIPI-01-01.wav,,,,,,,,,,,,,,,,,,,,
html-keyboard-response,28,286020,0.0-10.0-5.2,,,,,,426,j,"
        <p style= ""white-space: nowrap;text-align: center; padding: 20px; background-color: lightgray;"">
        The content of this audio is _<strong>school</strong>_ 
        </p>
    <p style=""width: 100%""> 
    Press <span style=""background-color: yellow;"">[ F ] key</span> if the accents are different. Press <span style=""background-color: yellow;"">[ J ] key</span> if the accents are the same.
    <u>Please press the key accordingly.</u>
    </p>",,,,,,,,,,,,practice,,1,EE,j,WIPI,school,stimuli/FAS_E5M-WIPI-01-01.wav,stimuli/FAS_E1M-WIPI-01-01.wav
html-keyboard-response,29,287024,0.0-10.0-0.3,,,,,,null,null,"<h1 style= ""font-size: 50px"">+
    </h1>",,,,,,,,,,,,,,,,,,,,
html-keyboard-response,30,287535,0.0-10.0-1.3,,,,,,null,null,"
            <p style= ""white-space: nowrap;text-align: center; padding: 20px; background-color: lightgray;"">
            The content of this audio is _<strong>fox</strong>_ 
            </p>",,,,,,,,,,,,,,,,,,,,
audio-keyboard-response,31,288370,0.0-10.0-2.3,,,,,,null,null,stimuli/FAS_M6M-WIPI-01-05.wav,,,,,,,,,,,,,,,,,,,,
html-keyboard-response,32,288885,0.0-10.0-3.3,,,,,,null,null,"
        <p style= ""white-space: nowrap;text-align: center; padding: 20px; background-color: lightgray;"">
        The content of this audio is _<strong>fox</strong>_ 
        </p>",,,,,,,,,,,,,,,,,,,,
audio-keyboard-response,33,289630,0.0-10.0-4.3,,,,,,null,null,stimuli/FAS_E1M-WIPI-01-05.wav,,,,,,,,,,,,,,,,,,,,
html-keyboard-response,34,290080,0.0-10.0-5.3,,,,,,446,f,"
        <p style= ""white-space: nowrap;text-align: center; padding: 20px; background-color: lightgray;"">
        The content of this audio is _<strong>fox</strong>_ 
        </p>
    <p style=""width: 100%""> 
    Press <span style=""background-color: yellow;"">[ F ] key</span> if the accents are different. Press <span style=""background-color: yellow;"">[ J ] key</span> if the accents are the same.
    <u>Please press the key accordingly.</u>
    </p>",,,,,,,,,,,,practice,,5,EM,f,WIPI,fox,stimuli/FAS_M6M-WIPI-01-05.wav,stimuli/FAS_E1M-WIPI-01-05.wav
html-keyboard-response,35,291088,0.0-10.0-0.4,,,,,,null,null,"<h1 style= ""font-size: 50px"">+
    </h1>",,,,,,,,,,,,,,,,,,,,
html-keyboard-response,36,291594,0.0-10.0-1.4,,,,,,null,null,"
            <p style= ""white-space: nowrap;text-align: center; padding: 20px; background-color: lightgray;"">
            The content of this audio is _<strong>smoke</strong>_ 
            </p>",,,,,,,,,,,,,,,,,,,,
audio-keyboard-response,37,292371,0.0-10.0-2.4,,,,,,null,null,stimuli/FAS_E1M-WIPI-01-03.wav,,,,,,,,,,,,,,,,,,,,
html-keyboard-response,38,292888,0.0-10.0-3.4,,,,,,null,null,"
        <p style= ""white-space: nowrap;text-align: center; padding: 20px; background-color: lightgray;"">
        The content of this audio is _<strong>smoke</strong>_ 
        </p>",,,,,,,,,,,,,,,,,,,,
audio-keyboard-response,39,293510,0.0-10.0-4.4,,,,,,null,null,stimuli/FAS_E5M-WIPI-01-03.wav,,,,,,,,,,,,,,,,,,,,
html-keyboard-response,40,294033,0.0-10.0-5.4,,,,,,520,j,"
        <p style= ""white-space: nowrap;text-align: center; padding: 20px; background-color: lightgray;"">
        The content of this audio is _<strong>smoke</strong>_ 
        </p>
    <p style=""width: 100%""> 
    Press <span style=""background-color: yellow;"">[ F ] key</span> if the accents are different. Press <span style=""background-color: yellow;"">[ J ] key</span> if the accents are the same.
    <u>Please press the key accordingly.</u>
    </p>",,,,,,,,,,,,practice,,3,EE,j,WIPI,smoke,stimuli/FAS_E1M-WIPI-01-03.wav,stimuli/FAS_E5M-WIPI-01-03.wav
html-keyboard-response,41,295045,0.0-10.0-0.5,,,,,,null,null,"<h1 style= ""font-size: 50px"">+
    </h1>",,,,,,,,,,,,,,,,,,,,
html-keyboard-response,42,295560,0.0-10.0-1.5,,,,,,null,null,"
            <p style= ""white-space: nowrap;text-align: center; padding: 20px; background-color: lightgray;"">
            The content of this audio is _<strong>The tomatoes grew in his garden.</strong>_ 
            </p>",,,,,,,,,,,,,,,,,,,,
audio-keyboard-response,43,297771,0.0-10.0-2.5,,,,,,null,null,stimuli/FAS_M6M-BKBR-00-03.wav,,,,,,,,,,,,,,,,,,,,
html-keyboard-response,44,298285,0.0-10.0-3.5,,,,,,null,null,"
        <p style= ""white-space: nowrap;text-align: center; padding: 20px; background-color: lightgray;"">
        The content of this audio is _<strong>The tomatoes grew in his garden.</strong>_ 
        </p>",,,,,,,,,,,,,,,,,,,,
audio-keyboard-response,45,300711,0.0-10.0-4.5,,,,,,null,null,stimuli/FAS_M1M-BKBR-00-03.wav,,,,,,,,,,,,,,,,,,,,
html-keyboard-response,46,301324,0.0-10.0-5.5,,,,,,610,f,"
        <p style= ""white-space: nowrap;text-align: center; padding: 20px; background-color: lightgray;"">
        The content of this audio is _<strong>The tomatoes grew in his garden.</strong>_ 
        </p>
    <p style=""width: 100%""> 
    Press <span style=""background-color: yellow;"">[ F ] key</span> if the accents are different. Press <span style=""background-color: yellow;"">[ J ] key</span> if the accents are the same.
    <u>Please press the key accordingly.</u>
    </p>",,,,,,,,,,,,practice,,9,MM,j,BKB,The tomatoes grew in his garden.,stimuli/FAS_M6M-BKBR-00-03.wav,stimuli/FAS_M1M-BKBR-00-03.wav
html-keyboard-response,47,302339,0.0-10.0-0.6,,,,,,null,null,"<h1 style= ""font-size: 50px"">+
    </h1>",,,,,,,,,,,,,,,,,,,,
html-keyboard-response,48,302849,0.0-10.0-1.6,,,,,,null,null,"
            <p style= ""white-space: nowrap;text-align: center; padding: 20px; background-color: lightgray;"">
            The content of this audio is _<strong>ball</strong>_ 
            </p>",,,,,,,,,,,,,,,,,,,,
audio-keyboard-response,49,303510,0.0-10.0-2.6,,,,,,null,null,stimuli/FAS_E1M-WIPI-01-02.wav,,,,,,,,,,,,,,,,,,,,
html-keyboard-response,50,304028,0.0-10.0-3.6,,,,,,null,null,"
        <p style= ""white-space: nowrap;text-align: center; padding: 20px; background-color: lightgray;"">
        The content of this audio is _<strong>ball</strong>_ 
        </p>",,,,,,,,,,,,,,,,,,,,
audio-keyboard-response,51,304590,0.0-10.0-4.6,,,,,,null,null,stimuli/FAS_E5M-WIPI-01-02.wav,,,,,,,,,,,,,,,,,,,,
html-keyboard-response,52,305162,0.0-10.0-5.6,,,,,,569,f,"
        <p style= ""white-space: nowrap;text-align: center; padding: 20px; background-color: lightgray;"">
        The content of this audio is _<strong>ball</strong>_ 
        </p>
    <p style=""width: 100%""> 
    Press <span style=""background-color: yellow;"">[ F ] key</span> if the accents are different. Press <span style=""background-color: yellow;"">[ J ] key</span> if the accents are the same.
    <u>Please press the key accordingly.</u>
    </p>",,,,,,,,,,,,practice,,2,EE,j,WIPI,ball,stimuli/FAS_E1M-WIPI-01-02.wav,stimuli/FAS_E5M-WIPI-01-02.wav
html-keyboard-response,53,306174,0.0-10.0-0.7,,,,,,null,null,"<h1 style= ""font-size: 50px"">+
    </h1>",,,,,,,,,,,,,,,,,,,,
html-keyboard-response,54,306678,0.0-10.0-1.7,,,,,,null,null,"
            <p style= ""white-space: nowrap;text-align: center; padding: 20px; background-color: lightgray;"">
            The content of this audio is _<strong>It is time to go home.</strong>_ 
            </p>",,,,,,,,,,,,,,,,,,,,
audio-keyboard-response,55,308310,0.0-10.0-2.7,,,,,,null,null,stimuli/FAS_M6M-BKBR-00-02.wav,,,,,,,,,,,,,,,,,,,,
html-keyboard-response,56,308828,0.0-10.0-3.7,,,,,,null,null,"
        <p style= ""white-space: nowrap;text-align: center; padding: 20px; background-color: lightgray;"">
        The content of this audio is _<strong>It is time to go home.</strong>_ 
        </p>",,,,,,,,,,,,,,,,,,,,
audio-keyboard-response,57,310430,0.0-10.0-4.7,,,,,,null,null,stimuli/FAS_M1M-BKBR-00-02.wav,,,,,,,,,,,,,,,,,,,,
html-keyboard-response,58,311577,0.0-10.0-5.7,,,,,,1144,f,"
        <p style= ""white-space: nowrap;text-align: center; padding: 20px; background-color: lightgray;"">
        The content of this audio is _<strong>It is time to go home.</strong>_ 
        </p>
    <p style=""width: 100%""> 
    Press <span style=""background-color: yellow;"">[ F ] key</span> if the accents are different. Press <span style=""background-color: yellow;"">[ J ] key</span> if the accents are the same.
    <u>Please press the key accordingly.</u>
    </p>",,,,,,,,,,,,practice,,8,MM,j,BKB,It is time to go home.,stimuli/FAS_M6M-BKBR-00-02.wav,stimuli/FAS_M1M-BKBR-00-02.wav
html-keyboard-response,59,312593,0.0-10.0-0.8,,,,,,null,null,"<h1 style= ""font-size: 50px"">+
    </h1>",,,,,,,,,,,,,,,,,,,,
html-keyboard-response,60,313108,0.0-10.0-1.8,,,,,,null,null,"
            <p style= ""white-space: nowrap;text-align: center; padding: 20px; background-color: lightgray;"">
            The content of this audio is _<strong>hat</strong>_ 
            </p>",,,,,,,,,,,,,,,,,,,,
audio-keyboard-response,61,313650,0.0-10.0-2.8,,,,,,null,null,stimuli/FAS_E1M-WIPI-01-06.wav,,,,,,,,,,,,,,,,,,,,
html-keyboard-response,62,314161,0.0-10.0-3.8,,,,,,null,null,"
        <p style= ""white-space: nowrap;text-align: center; padding: 20px; background-color: lightgray;"">
        The content of this audio is _<strong>hat</strong>_ 
        </p>",,,,,,,,,,,,,,,,,,,,
audio-keyboard-response,63,314730,0.0-10.0-4.8,,,,,,null,null,stimuli/FAS_M6M-WIPI-01-06.wav,,,,,,,,,,,,,,,,,,,,
html-keyboard-response,64,319331,0.0-10.0-5.8,,,,,,4597,j,"
        <p style= ""white-space: nowrap;text-align: center; padding: 20px; background-color: lightgray;"">
        The content of this audio is _<strong>hat</strong>_ 
        </p>
    <p style=""width: 100%""> 
    Press <span style=""background-color: yellow;"">[ F ] key</span> if the accents are different. Press <span style=""background-color: yellow;"">[ J ] key</span> if the accents are the same.
    <u>Please press the key accordingly.</u>
    </p>",,,,,,,,,,,,practice,,6,EM,f,WIPI,hat,stimuli/FAS_E1M-WIPI-01-06.wav,stimuli/FAS_M6M-WIPI-01-06.wav
html-keyboard-response,65,320346,0.0-10.0-0.9,,,,,,null,null,"<h1 style= ""font-size: 50px"">+
    </h1>",,,,,,,,,,,,,,,,,,,,
html-keyboard-response,66,320859,0.0-10.0-1.9,,,,,,null,null,"
            <p style= ""white-space: nowrap;text-align: center; padding: 20px; background-color: lightgray;"">
            The content of this audio is _<strong>They watched the movie.</strong>_ 
            </p>",,,,,,,,,,,,,,,,,,,,
audio-keyboard-response,67,322250,0.0-10.0-2.9,,,,,,null,null,stimuli/FAS_M1M-BKBR-00-01.wav,,,,,,,,,,,,,,,,,,,,
html-keyboard-response,68,322760,0.0-10.0-3.9,,,,,,null,null,"
        <p style= ""white-space: nowrap;text-align: center; padding: 20px; background-color: lightgray;"">
        The content of this audio is _<strong>They watched the movie.</strong>_ 
        </p>",,,,,,,,,,,,,,,,,,,,
audio-keyboard-response,69,324271,0.0-10.0-4.9,,,,,,null,null,stimuli/FAS_M6M-BKBR-00-01.wav,,,,,,,,,,,,,,,,,,,,
html-keyboard-response,70,333239,0.0-10.0-5.9,,,,,,8965,j,"
        <p style= ""white-space: nowrap;text-align: center; padding: 20px; background-color: lightgray;"">
        The content of this audio is _<strong>They watched the movie.</strong>_ 
        </p>
    <p style=""width: 100%""> 
    Press <span style=""background-color: yellow;"">[ F ] key</span> if the accents are different. Press <span style=""background-color: yellow;"">[ J ] key</span> if the accents are the same.
    <u>Please press the key accordingly.</u>
    </p>",,,,,,,,,,,,practice,,7,MM,j,BKB,They watched the movie.,stimuli/FAS_M1M-BKBR-00-01.wav,stimuli/FAS_M6M-BKBR-00-01.wav
html-keyboard-response,71,334242,0.0-10.0-0.10,,,,,,null,null,"<h1 style= ""font-size: 50px"">+
    </h1>",,,,,,,,,,,,,,,,,,,,
html-keyboard-response,72,334748,0.0-10.0-1.10,,,,,,null,null,"
            <p style= ""white-space: nowrap;text-align: center; padding: 20px; background-color: lightgray;"">
            The content of this audio is _<strong>The yellow pears taste good.</strong>_ 
            </p>",,,,,,,,,,,,,,,,,,,,
audio-keyboard-response,73,336493,0.0-10.0-2.10,,,,,,null,null,stimuli/FAS_E5M-HINT-P1-02.wav,,,,,,,,,,,,,,,,,,,,
html-keyboard-response,74,337011,0.0-10.0-3.10,,,,,,null,null,"
        <p style= ""white-space: nowrap;text-align: center; padding: 20px; background-color: lightgray;"">
        The content of this audio is _<strong>The yellow pears taste good.</strong>_ 
        </p>",,,,,,,,,,,,,,,,,,,,
audio-keyboard-response,75,339013,0.0-10.0-4.10,,,,,,null,null,stimuli/FAS_M6M-HINT-P1-02.wav,,,,,,,,,,,,,,,,,,,,
html-keyboard-response,76,339152,0.0-10.0-5.10,,,,,,136,j,"
        <p style= ""white-space: nowrap;text-align: center; padding: 20px; background-color: lightgray;"">
        The content of this audio is _<strong>The yellow pears taste good.</strong>_ 
        </p>
    <p style=""width: 100%""> 
    Press <span style=""background-color: yellow;"">[ F ] key</span> if the accents are different. Press <span style=""background-color: yellow;"">[ J ] key</span> if the accents are the same.
    <u>Please press the key accordingly.</u>
    </p>",,,,,,,,,,,,practice,,11,EM,f,HINT,The yellow pears taste good.,stimuli/FAS_E5M-HINT-P1-02.wav,stimuli/FAS_M6M-HINT-P1-02.wav
html-keyboard-response,77,340168,0.0-10.0-0.11,,,,,,null,null,"<h1 style= ""font-size: 50px"">+
    </h1>",,,,,,,,,,,,,,,,,,,,
html-keyboard-response,78,340680,0.0-10.0-1.11,,,,,,null,null,"
            <p style= ""white-space: nowrap;text-align: center; padding: 20px; background-color: lightgray;"">
            The content of this audio is _<strong>The boy got into trouble.</strong>_ 
            </p>",,,,,,,,,,,,,,,,,,,,
audio-keyboard-response,79,342273,0.0-10.0-2.11,,,,,,null,null,stimuli/FAS_E5M-HINT-P1-01.wav,,,,,,,,,,,,,,,,,,,,
html-keyboard-response,80,342791,0.0-10.0-3.11,,,,,,null,null,"
        <p style= ""white-space: nowrap;text-align: center; padding: 20px; background-color: lightgray;"">
        The content of this audio is _<strong>The boy got into trouble.</strong>_ 
        </p>",,,,,,,,,,,,,,,,,,,,
audio-keyboard-response,81,344694,0.0-10.0-4.11,,,,,,null,null,stimuli/FAS_M6M-HINT-P1-01.wav,,,,,,,,,,,,,,,,,,,,
html-keyboard-response,82,344806,0.0-10.0-5.11,,,,,,110,j,"
        <p style= ""white-space: nowrap;text-align: center; padding: 20px; background-color: lightgray;"">
        The content of this audio is _<strong>The boy got into trouble.</strong>_ 
        </p>
    <p style=""width: 100%""> 
    Press <span style=""background-color: yellow;"">[ F ] key</span> if the accents are different. Press <span style=""background-color: yellow;"">[ J ] key</span> if the accents are the same.
    <u>Please press the key accordingly.</u>
    </p>",,,,,,,,,,,,practice,,10,EM,f,HINT,The boy got into trouble.,stimuli/FAS_E5M-HINT-P1-01.wav,stimuli/FAS_M6M-HINT-P1-01.wav
html-button-response,83,357857,0.0-11.0,,,,,,13048,0,"
    <h1 style = ""width:100%"">
    The practice session is now over.
    </h1>
    <p>
    If you have any questions at this point, please do not close this webpage and contact the researcher.

    If you have no questions regarding the experiment procedure, click the button below to start the experiment.
    </p>
    ",,,,,,,,,,,,,,,,,,,,
html-keyboard-response,84,358863,0.0-12.0-0.0,,,,,,null,null,"<h1 style= ""font-size: 50px"">+
    </h1>",,,,,,,,,,,,,,,,,,,,
html-keyboard-response,85,359371,0.0-12.0-1.0,,,,,,null,null,"
            <p style= ""white-space: nowrap;text-align: center; padding: 20px; background-color: lightgray;"">
            The content of this audio is _<strong>The table has three legs.</strong>_ 
            </p>",,,,,,,,,,,,,,,,,,,,
audio-keyboard-response,86,361232,0.0-12.0-2.0,,,,,,null,null,stimuli/FAS_K9M-HINT-10-08.wav,,,,,,,,,,,,,,,,,,,,
html-keyboard-response,87,361750,0.0-12.0-3.0,,,,,,null,null,"
        <p style= ""white-space: nowrap;text-align: center; padding: 20px; background-color: lightgray;"">
        The content of this audio is _<strong>The table has three legs.</strong>_ 
        </p>",,,,,,,,,,,,,,,,,,,,
audio-keyboard-response,88,363493,0.0-12.0-4.0,,,,,,null,null,stimuli/FAS_J2M-HINT-10-08.wav,,,,,,,,,,,,,,,,,,,,
html-keyboard-response,89,363652,0.0-12.0-5.0,,,,,,155,f,"
        <p style= ""white-space: nowrap;text-align: center; padding: 20px; background-color: lightgray;"">
        The content of the audio is_<strong>The table has three legs.</strong>_ 
        </p>
    <p style=""width: 100%""> 
    Press <span style=""background-color: yellow;"">[ F ] key</span> if the accents are different. Press <span style=""background-color: yellow;"">[ J ] key</span> if the accents are the same.
    <u>Please press the key accordingly.</u>
    </p>",,,,,,,,,,,,sentence,,190,JK,f,HINT,The table has three legs.,stimuli/FAS_K9M-HINT-10-08.wav,stimuli/FAS_J2M-HINT-10-08.wav
html-keyboard-response,90,364664,0.0-12.0-0.1,,,,,,null,null,"<h1 style= ""font-size: 50px"">+
    </h1>",,,,,,,,,,,,,,,,,,,,
html-keyboard-response,91,365176,0.0-12.0-1.1,,,,,,null,null,"
            <p style= ""white-space: nowrap;text-align: center; padding: 20px; background-color: lightgray;"">
            The content of this audio is _<strong>The house had a nice garden.</strong>_ 
            </p>",,,,,,,,,,,,,,,,,,,,
audio-keyboard-response,92,367052,0.0-12.0-2.1,,,,,,null,null,stimuli/FAS_J1M-BKBR-04-05.wav,,,,,,,,,,,,,,,,,,,,
html-keyboard-response,93,367560,0.0-12.0-3.1,,,,,,null,null,"
        <p style= ""white-space: nowrap;text-align: center; padding: 20px; background-color: lightgray;"">
        The content of this audio is _<strong>The house had a nice garden.</strong>_ 
        </p>",,,,,,,,,,,,,,,,,,,,
audio-keyboard-response,94,369252,0.0-12.0-4.1,,,,,,null,null,stimuli/FAS_J2M-BKBR-04-05.wav,,,,,,,,,,,,,,,,,,,,
html-keyboard-response,95,369316,0.0-12.0-5.1,,,,,,61,f,"
        <p style= ""white-space: nowrap;text-align: center; padding: 20px; background-color: lightgray;"">
        The content of the audio is_<strong>The house had a nice garden.</strong>_ 
        </p>
    <p style=""width: 100%""> 
    Press <span style=""background-color: yellow;"">[ F ] key</span> if the accents are different. Press <span style=""background-color: yellow;"">[ J ] key</span> if the accents are the same.
    <u>Please press the key accordingly.</u>
    </p>",,,,,,,,,,,,sentence,,53,JJ,j,BKB,The house had a nice garden.,stimuli/FAS_J1M-BKBR-04-05.wav,stimuli/FAS_J2M-BKBR-04-05.wav
html-keyboard-response,96,370331,0.0-12.0-0.2,,,,,,null,null,"<h1 style= ""font-size: 50px"">+
    </h1>",,,,,,,,,,,,,,,,,,,,
html-keyboard-response,97,370840,0.0-12.0-1.2,,,,,,null,null,"
            <p style= ""white-space: nowrap;text-align: center; padding: 20px; background-color: lightgray;"">
            The content of this audio is _<strong>They watched a scary movie.</strong>_ 
            </p>",,,,,,,,,,,,,,,,,,,,
audio-keyboard-response,98,372912,0.0-12.0-2.2,,,,,,null,null,stimuli/FAS_K7M-HINT-05-06.wav,,,,,,,,,,,,,,,,,,,,
html-keyboard-response,99,373424,0.0-12.0-3.2,,,,,,null,null,"
        <p style= ""white-space: nowrap;text-align: center; padding: 20px; background-color: lightgray;"">
        The content of this audio is _<strong>They watched a scary movie.</strong>_ 
        </p>",,,,,,,,,,,,,,,,,,,,
audio-keyboard-response,100,375092,0.0-12.0-4.2,,,,,,null,null,stimuli/FAS_E5M-HINT-05-06.wav,,,,,,,,,,,,,,,,,,,,
html-keyboard-response,101,376541,0.0-12.0-5.2,,,,,,1445,f,"
        <p style= ""white-space: nowrap;text-align: center; padding: 20px; background-color: lightgray;"">
        The content of the audio is_<strong>They watched a scary movie.</strong>_ 
        </p>
    <p style=""width: 100%""> 
    Press <span style=""background-color: yellow;"">[ F ] key</span> if the accents are different. Press <span style=""background-color: yellow;"">[ J ] key</span> if the accents are the same.
    <u>Please press the key accordingly.</u>
    </p>",,,,,,,,,,,,sentence,,138,EK,f,HINT,They watched a scary movie.,stimuli/FAS_K7M-HINT-05-06.wav,stimuli/FAS_E5M-HINT-05-06.wav
html-keyboard-response,102,377547,0.0-12.0-0.3,,,,,,null,null,"<h1 style= ""font-size: 50px"">+
    </h1>",,,,,,,,,,,,,,,,,,,,
html-keyboard-response,103,378060,0.0-12.0-1.3,,,,,,null,null,"
            <p style= ""white-space: nowrap;text-align: center; padding: 20px; background-color: lightgray;"">
            The content of this audio is _<strong>They are coming for dinner.</strong>_ 
            </p>",,,,,,,,,,,,,,,,,,,,
audio-keyboard-response,104,380092,0.0-12.0-2.3,,,,,,null,null,stimuli/FAS_K7M-HINT-10-05.wav,,,,,,,,,,,,,,,,,,,,
html-keyboard-response,105,380610,0.0-12.0-3.3,,,,,,null,null,"
        <p style= ""white-space: nowrap;text-align: center; padding: 20px; background-color: lightgray;"">
        The content of this audio is _<strong>They are coming for dinner.</strong>_ 
        </p>",,,,,,,,,,,,,,,,,,,,
audio-keyboard-response,106,382072,0.0-12.0-4.3,,,,,,null,null,stimuli/FAS_J2M-HINT-10-05.wav,,,,,,,,,,,,,,,,,,,,
html-keyboard-response,107,383338,0.0-12.0-5.3,,,,,,1263,f,"
        <p style= ""white-space: nowrap;text-align: center; padding: 20px; background-color: lightgray;"">
        The content of the audio is_<strong>They are coming for dinner.</strong>_ 
        </p>
    <p style=""width: 100%""> 
    Press <span style=""background-color: yellow;"">[ F ] key</span> if the accents are different. Press <span style=""background-color: yellow;"">[ J ] key</span> if the accents are the same.
    <u>Please press the key accordingly.</u>
    </p>",,,,,,,,,,,,sentence,,187,JK,f,HINT,They are coming for dinner.,stimuli/FAS_K7M-HINT-10-05.wav,stimuli/FAS_J2M-HINT-10-05.wav
html-keyboard-response,108,384342,0.0-12.0-0.4,,,,,,null,null,"<h1 style= ""font-size: 50px"">+
    </h1>",,,,,,,,,,,,,,,,,,,,
html-keyboard-response,109,384860,0.0-12.0-1.4,,,,,,null,null,"
            <p style= ""white-space: nowrap;text-align: center; padding: 20px; background-color: lightgray;"">
            The content of this audio is _<strong>They're going out tonight.</strong>_ 
            </p>",,,,,,,,,,,,,,,,,,,,
audio-keyboard-response,110,386312,0.0-12.0-2.4,,,,,,null,null,stimuli/FAS_E5M-HINT-04-02.wav,,,,,,,,,,,,,,,,,,,,
html-keyboard-response,111,386823,0.0-12.0-3.4,,,,,,null,null,"
        <p style= ""white-space: nowrap;text-align: center; padding: 20px; background-color: lightgray;"">
        The content of this audio is _<strong>They're going out tonight.</strong>_ 
        </p>",,,,,,,,,,,,,,,,,,,,
audio-keyboard-response,112,388470,0.0-12.0-4.4,,,,,,null,null,stimuli/FAS_J1M-HINT-04-02.wav,,,,,,,,,,,,,,,,,,,,
html-keyboard-response,113,388625,0.0-12.0-5.4,,,,,,153,f,"
        <p style= ""white-space: nowrap;text-align: center; padding: 20px; background-color: lightgray;"">
        The content of the audio is_<strong>They're going out tonight.</strong>_ 
        </p>
    <p style=""width: 100%""> 
    Press <span style=""background-color: yellow;"">[ F ] key</span> if the accents are different. Press <span style=""background-color: yellow;"">[ J ] key</span> if the accents are the same.
    <u>Please press the key accordingly.</u>
    </p>",,,,,,,,,,,,sentence,,124,EJ,f,HINT,They're going out tonight.,stimuli/FAS_E5M-HINT-04-02.wav,stimuli/FAS_J1M-HINT-04-02.wav
html-keyboard-response,114,389630,0.0-12.0-0.5,,,,,,null,null,"<h1 style= ""font-size: 50px"">+
    </h1>",,,,,,,,,,,,,,,,,,,,
html-keyboard-response,115,390150,0.0-12.0-1.5,,,,,,null,null,"
            <p style= ""white-space: nowrap;text-align: center; padding: 20px; background-color: lightgray;"">
            The content of this audio is _<strong>The boy did a handstand.</strong>_ 
            </p>",,,,,,,,,,,,,,,,,,,,
audio-keyboard-response,116,391872,0.0-12.0-2.5,,,,,,null,null,stimuli/FAS_E1M-BKBR-01-12.wav,,,,,,,,,,,,,,,,,,,,
html-keyboard-response,117,392391,0.0-12.0-3.5,,,,,,null,null,"
        <p style= ""white-space: nowrap;text-align: center; padding: 20px; background-color: lightgray;"">
        The content of this audio is _<strong>The boy did a handstand.</strong>_ 
        </p>",,,,,,,,,,,,,,,,,,,,
audio-keyboard-response,118,394092,0.0-12.0-4.5,,,,,,null,null,stimuli/FAS_E5M-BKBR-01-12.wav,,,,,,,,,,,,,,,,,,,,
html-keyboard-response,119,397405,0.0-12.0-5.5,,,,,,3310,j,"
        <p style= ""white-space: nowrap;text-align: center; padding: 20px; background-color: lightgray;"">
        The content of the audio is_<strong>The boy did a handstand.</strong>_ 
        </p>
    <p style=""width: 100%""> 
    Press <span style=""background-color: yellow;"">[ F ] key</span> if the accents are different. Press <span style=""background-color: yellow;"">[ J ] key</span> if the accents are the same.
    <u>Please press the key accordingly.</u>
    </p>",,,,,,,,,,,,sentence,,12,EE,j,BKB,The boy did a handstand.,stimuli/FAS_E1M-BKBR-01-12.wav,stimuli/FAS_E5M-BKBR-01-12.wav
html-keyboard-response,120,398409,0.0-12.0-0.6,,,,,,null,null,"<h1 style= ""font-size: 50px"">+
    </h1>",,,,,,,,,,,,,,,,,,,,
html-keyboard-response,121,398919,0.0-12.0-1.6,,,,,,null,null,"
            <p style= ""white-space: nowrap;text-align: center; padding: 20px; background-color: lightgray;"">
            The content of this audio is _<strong>They are buying some bread.</strong>_ 
            </p>",,,,,,,,,,,,,,,,,,,,
audio-keyboard-response,122,400430,0.0-12.0-2.6,,,,,,null,null,stimuli/FAS_E1M-BKBR-01-06.wav,,,,,,,,,,,,,,,,,,,,
html-keyboard-response,123,400939,0.0-12.0-3.6,,,,,,null,null,"
        <p style= ""white-space: nowrap;text-align: center; padding: 20px; background-color: lightgray;"">
        The content of this audio is _<strong>They are buying some bread.</strong>_ 
        </p>",,,,,,,,,,,,,,,,,,,,
audio-keyboard-response,124,402412,0.0-12.0-4.6,,,,,,null,null,stimuli/FAS_E5M-BKBR-01-06.wav,,,,,,,,,,,,,,,,,,,,
html-keyboard-response,125,402923,0.0-12.0-5.6,,,,,,508,j,"
        <p style= ""white-space: nowrap;text-align: center; padding: 20px; background-color: lightgray;"">
        The content of the audio is_<strong>They are buying some bread.</strong>_ 
        </p>
    <p style=""width: 100%""> 
    Press <span style=""background-color: yellow;"">[ F ] key</span> if the accents are different. Press <span style=""background-color: yellow;"">[ J ] key</span> if the accents are the same.
    <u>Please press the key accordingly.</u>
    </p>",,,,,,,,,,,,sentence,,6,EE,j,BKB,They are buying some bread.,stimuli/FAS_E1M-BKBR-01-06.wav,stimuli/FAS_E5M-BKBR-01-06.wav
html-keyboard-response,126,403926,0.0-12.0-0.7,,,,,,null,null,"<h1 style= ""font-size: 50px"">+
    </h1>",,,,,,,,,,,,,,,,,,,,
html-keyboard-response,127,404441,0.0-12.0-1.7,,,,,,null,null,"
            <p style= ""white-space: nowrap;text-align: center; padding: 20px; background-color: lightgray;"">
            The content of this audio is _<strong>The woman cleaned her house.</strong>_ 
            </p>",,,,,,,,,,,,,,,,,,,,
audio-keyboard-response,128,406552,0.0-12.0-2.7,,,,,,null,null,stimuli/FAS_K9M-HINT-09-02.wav,,,,,,,,,,,,,,,,,,,,
html-keyboard-response,129,407070,0.0-12.0-3.7,,,,,,null,null,"
        <p style= ""white-space: nowrap;text-align: center; padding: 20px; background-color: lightgray;"">
        The content of this audio is _<strong>The woman cleaned her house.</strong>_ 
        </p>",,,,,,,,,,,,,,,,,,,,
audio-keyboard-response,130,408851,0.0-12.0-4.7,,,,,,null,null,stimuli/FAS_M6M-HINT-09-02.wav,,,,,,,,,,,,,,,,,,,,
html-keyboard-response,131,408872,0.0-12.0-5.7,,,,,,20,f,"
        <p style= ""white-space: nowrap;text-align: center; padding: 20px; background-color: lightgray;"">
        The content of the audio is_<strong>The woman cleaned her house.</strong>_ 
        </p>
    <p style=""width: 100%""> 
    Press <span style=""background-color: yellow;"">[ F ] key</span> if the accents are different. Press <span style=""background-color: yellow;"">[ J ] key</span> if the accents are the same.
    <u>Please press the key accordingly.</u>
    </p>",,,,,,,,,,,,sentence,,174,MK,f,HINT,The woman cleaned her house.,stimuli/FAS_K9M-HINT-09-02.wav,stimuli/FAS_M6M-HINT-09-02.wav
html-keyboard-response,132,409877,0.0-12.0-0.8,,,,,,null,null,"<h1 style= ""font-size: 50px"">+
    </h1>",,,,,,,,,,,,,,,,,,,,
html-keyboard-response,133,410383,0.0-12.0-1.8,,,,,,null,null,"
            <p style= ""white-space: nowrap;text-align: center; padding: 20px; background-color: lightgray;"">
            The content of this audio is _<strong>Sugar is very sweet.</strong>_ 
            </p>",,,,,,,,,,,,,,,,,,,,
audio-keyboard-response,134,412412,0.0-12.0-2.8,,,,,,null,null,stimuli/FAS_J1M-HINT-07-04.wav,,,,,,,,,,,,,,,,,,,,
html-keyboard-response,135,412920,0.0-12.0-3.8,,,,,,null,null,"
        <p style= ""white-space: nowrap;text-align: center; padding: 20px; background-color: lightgray;"">
        The content of this audio is _<strong>Sugar is very sweet.</strong>_ 
        </p>",,,,,,,,,,,,,,,,,,,,
audio-keyboard-response,136,414532,0.0-12.0-4.8,,,,,,null,null,stimuli/FAS_M6M-HINT-07-04.wav,,,,,,,,,,,,,,,,,,,,
html-keyboard-response,137,415072,0.0-12.0-5.8,,,,,,538,f,"
        <p style= ""white-space: nowrap;text-align: center; padding: 20px; background-color: lightgray;"">
        The content of the audio is_<strong>Sugar is very sweet.</strong>_ 
        </p>
    <p style=""width: 100%""> 
    Press <span style=""background-color: yellow;"">[ F ] key</span> if the accents are different. Press <span style=""background-color: yellow;"">[ J ] key</span> if the accents are the same.
    <u>Please press the key accordingly.</u>
    </p>",,,,,,,,,,,,sentence,,156,MJ,f,HINT,Sugar is very sweet.,stimuli/FAS_J1M-HINT-07-04.wav,stimuli/FAS_M6M-HINT-07-04.wav
html-keyboard-response,138,416076,0.0-12.0-0.9,,,,,,null,null,"<h1 style= ""font-size: 50px"">+
    </h1>",,,,,,,,,,,,,,,,,,,,
html-keyboard-response,139,416591,0.0-12.0-1.9,,,,,,null,null,"
            <p style= ""white-space: nowrap;text-align: center; padding: 20px; background-color: lightgray;"">
            The content of this audio is _<strong>The ice cream was pink.</strong>_ 
            </p>",,,,,,,,,,,,,,,,,,,,
audio-keyboard-response,140,418092,0.0-12.0-2.9,,,,,,null,null,stimuli/FAS_E1M-BKBR-01-16.wav,,,,,,,,,,,,,,,,,,,,
html-keyboard-response,141,418606,0.0-12.0-3.9,,,,,,null,null,"
        <p style= ""white-space: nowrap;text-align: center; padding: 20px; background-color: lightgray;"">
        The content of this audio is _<strong>The ice cream was pink.</strong>_ 
        </p>",,,,,,,,,,,,,,,,,,,,
audio-keyboard-response,142,420132,0.0-12.0-4.9,,,,,,null,null,stimuli/FAS_E5M-BKBR-01-16.wav,,,,,,,,,,,,,,,,,,,,
html-keyboard-response,143,421405,0.0-12.0-5.9,,,,,,1270,j,"
        <p style= ""white-space: nowrap;text-align: center; padding: 20px; background-color: lightgray;"">
        The content of the audio is_<strong>The ice cream was pink.</strong>_ 
        </p>
    <p style=""width: 100%""> 
    Press <span style=""background-color: yellow;"">[ F ] key</span> if the accents are different. Press <span style=""background-color: yellow;"">[ J ] key</span> if the accents are the same.
    <u>Please press the key accordingly.</u>
    </p>",,,,,,,,,,,,sentence,,16,EE,j,BKB,The ice cream was pink.,stimuli/FAS_E1M-BKBR-01-16.wav,stimuli/FAS_E5M-BKBR-01-16.wav
html-keyboard-response,144,422420,0.0-12.0-0.10,,,,,,null,null,"<h1 style= ""font-size: 50px"">+
    </h1>",,,,,,,,,,,,,,,,,,,,
html-keyboard-response,145,422927,0.0-12.0-1.10,,,,,,null,null,"
            <p style= ""white-space: nowrap;text-align: center; padding: 20px; background-color: lightgray;"">
            The content of this audio is _<strong>The child grabbed the toy.</strong>_ 
            </p>",,,,,,,,,,,,,,,,,,,,
audio-keyboard-response,146,424550,0.0-12.0-2.10,,,,,,null,null,stimuli/FAS_J2M-BKBR-04-15.wav,,,,,,,,,,,,,,,,,,,,
html-keyboard-response,147,425066,0.0-12.0-3.10,,,,,,null,null,"
        <p style= ""white-space: nowrap;text-align: center; padding: 20px; background-color: lightgray;"">
        The content of this audio is _<strong>The child grabbed the toy.</strong>_ 
        </p>",,,,,,,,,,,,,,,,,,,,
audio-keyboard-response,148,427212,0.0-12.0-4.10,,,,,,null,null,stimuli/FAS_J1M-BKBR-04-15.wav,,,,,,,,,,,,,,,,,,,,
html-keyboard-response,149,427692,0.0-12.0-5.10,,,,,,477,f,"
        <p style= ""white-space: nowrap;text-align: center; padding: 20px; background-color: lightgray;"">
        The content of the audio is_<strong>The child grabbed the toy.</strong>_ 
        </p>
    <p style=""width: 100%""> 
    Press <span style=""background-color: yellow;"">[ F ] key</span> if the accents are different. Press <span style=""background-color: yellow;"">[ J ] key</span> if the accents are the same.
    <u>Please press the key accordingly.</u>
    </p>",,,,,,,,,,,,sentence,,63,JJ,j,BKB,The child grabbed the toy.,stimuli/FAS_J2M-BKBR-04-15.wav,stimuli/FAS_J1M-BKBR-04-15.wav
html-keyboard-response,150,428702,0.0-12.0-0.11,,,,,,null,null,"<h1 style= ""font-size: 50px"">+
    </h1>",,,,,,,,,,,,,,,,,,,,
html-keyboard-response,151,429208,0.0-12.0-1.11,,,,,,null,null,"
            <p style= ""white-space: nowrap;text-align: center; padding: 20px; background-color: lightgray;"">
            The content of this audio is _<strong>The cook cut some onions.</strong>_ 
            </p>",,,,,,,,,,,,,,,,,,,,
audio-keyboard-response,152,432732,0.0-12.0-2.11,,,,,,null,null,stimuli/FAS_K7M-BKBR-05-09.wav,,,,,,,,,,,,,,,,,,,,
html-keyboard-response,153,433240,0.0-12.0-3.11,,,,,,null,null,"
        <p style= ""white-space: nowrap;text-align: center; padding: 20px; background-color: lightgray;"">
        The content of this audio is _<strong>The cook cut some onions.</strong>_ 
        </p>",,,,,,,,,,,,,,,,,,,,
audio-keyboard-response,154,435452,0.0-12.0-4.11,,,,,,null,null,stimuli/FAS_K9M-BKBR-05-09.wav,,,,,,,,,,,,,,,,,,,,
html-keyboard-response,155,436462,0.0-12.0-5.11,,,,,,1008,f,"
        <p style= ""white-space: nowrap;text-align: center; padding: 20px; background-color: lightgray;"">
        The content of the audio is_<strong>The cook cut some onions.</strong>_ 
        </p>
    <p style=""width: 100%""> 
    Press <span style=""background-color: yellow;"">[ F ] key</span> if the accents are different. Press <span style=""background-color: yellow;"">[ J ] key</span> if the accents are the same.
    <u>Please press the key accordingly.</u>
    </p>",,,,,,,,,,,,sentence,,73,KK,j,BKB,The cook cut some onions.,stimuli/FAS_K7M-BKBR-05-09.wav,stimuli/FAS_K9M-BKBR-05-09.wav
html-keyboard-response,156,437471,0.0-12.0-0.12,,,,,,null,null,"<h1 style= ""font-size: 50px"">+
    </h1>",,,,,,,,,,,,,,,,,,,,
html-keyboard-response,157,437978,0.0-12.0-1.12,,,,,,null,null,"
            <p style= ""white-space: nowrap;text-align: center; padding: 20px; background-color: lightgray;"">
            The content of this audio is _<strong>The broom stood in the corner.</strong>_ 
            </p>",,,,,,,,,,,,,,,,,,,,
audio-keyboard-response,158,439772,0.0-12.0-2.12,,,,,,null,null,stimuli/FAS_K9M-BKBR-06-15.wav,,,,,,,,,,,,,,,,,,,,
html-keyboard-response,159,440275,0.0-12.0-3.12,,,,,,null,null,"
        <p style= ""white-space: nowrap;text-align: center; padding: 20px; background-color: lightgray;"">
        The content of this audio is _<strong>The broom stood in the corner.</strong>_ 
        </p>",,,,,,,,,,,,,,,,,,,,
audio-keyboard-response,160,442372,0.0-12.0-4.12,,,,,,null,null,stimuli/FAS_M1M-BKBR-06-15.wav,,,,,,,,,,,,,,,,,,,,
html-keyboard-response,161,443150,0.0-12.0-5.12,,,,,,775,f,"
        <p style= ""white-space: nowrap;text-align: center; padding: 20px; background-color: lightgray;"">
        The content of the audio is_<strong>The broom stood in the corner.</strong>_ 
        </p>
    <p style=""width: 100%""> 
    Press <span style=""background-color: yellow;"">[ F ] key</span> if the accents are different. Press <span style=""background-color: yellow;"">[ J ] key</span> if the accents are the same.
    <u>Please press the key accordingly.</u>
    </p>",,,,,,,,,,,,sentence,,167,MK,f,HINT,The broom stood in the corner.,stimuli/FAS_K9M-BKBR-06-15.wav,stimuli/FAS_M1M-BKBR-06-15.wav
html-keyboard-response,162,444160,0.0-12.0-0.13,,,,,,null,null,"<h1 style= ""font-size: 50px"">+
    </h1>",,,,,,,,,,,,,,,,,,,,
html-keyboard-response,163,444676,0.0-12.0-1.13,,,,,,null,null,"
            <p style= ""white-space: nowrap;text-align: center; padding: 20px; background-color: lightgray;"">
            The content of this audio is _<strong>Men wear long pants.</strong>_ 
            </p>",,,,,,,,,,,,,,,,,,,,
audio-keyboard-response,164,446552,0.0-12.0-2.13,,,,,,null,null,stimuli/FAS_K9M-BKBR-06-04.wav,,,,,,,,,,,,,,,,,,,,
html-keyboard-response,165,447054,0.0-12.0-3.13,,,,,,null,null,"
        <p style= ""white-space: nowrap;text-align: center; padding: 20px; background-color: lightgray;"">
        The content of this audio is _<strong>Men wear long pants.</strong>_ 
        </p>",,,,,,,,,,,,,,,,,,,,
audio-keyboard-response,166,449232,0.0-12.0-4.13,,,,,,null,null,stimuli/FAS_K7M-BKBR-06-04.wav,,,,,,,,,,,,,,,,,,,,
html-keyboard-response,167,449890,0.0-12.0-5.13,,,,,,654,f,"
        <p style= ""white-space: nowrap;text-align: center; padding: 20px; background-color: lightgray;"">
        The content of the audio is_<strong>Men wear long pants.</strong>_ 
        </p>
    <p style=""width: 100%""> 
    Press <span style=""background-color: yellow;"">[ F ] key</span> if the accents are different. Press <span style=""background-color: yellow;"">[ J ] key</span> if the accents are the same.
    <u>Please press the key accordingly.</u>
    </p>",,,,,,,,,,,,sentence,,84,KK,j,BKB,Men wear long pants.,stimuli/FAS_K9M-BKBR-06-04.wav,stimuli/FAS_K7M-BKBR-06-04.wav
html-keyboard-response,168,450904,0.0-12.0-0.14,,,,,,null,null,"<h1 style= ""font-size: 50px"">+
    </h1>",,,,,,,,,,,,,,,,,,,,
html-keyboard-response,169,451419,0.0-12.0-1.14,,,,,,null,null,"
            <p style= ""white-space: nowrap;text-align: center; padding: 20px; background-color: lightgray;"">
            The content of this audio is _<strong>He found his brother.</strong>_ 
            </p>",,,,,,,,,,,,,,,,,,,,
audio-keyboard-response,170,453212,0.0-12.0-2.14,,,,,,null,null,stimuli/FAS_J1M-BKBR-04-09.wav,,,,,,,,,,,,,,,,,,,,
html-keyboard-response,171,453720,0.0-12.0-3.14,,,,,,null,null,"
        <p style= ""white-space: nowrap;text-align: center; padding: 20px; background-color: lightgray;"">
        The content of this audio is _<strong>He found his brother.</strong>_ 
        </p>",,,,,,,,,,,,,,,,,,,,
audio-keyboard-response,172,455112,0.0-12.0-4.14,,,,,,null,null,stimuli/FAS_J2M-BKBR-04-09.wav,,,,,,,,,,,,,,,,,,,,
html-keyboard-response,173,455547,0.0-12.0-5.14,,,,,,432,f,"
        <p style= ""white-space: nowrap;text-align: center; padding: 20px; background-color: lightgray;"">
        The content of the audio is_<strong>He found his brother.</strong>_ 
        </p>
    <p style=""width: 100%""> 
    Press <span style=""background-color: yellow;"">[ F ] key</span> if the accents are different. Press <span style=""background-color: yellow;"">[ J ] key</span> if the accents are the same.
    <u>Please press the key accordingly.</u>
    </p>",,,,,,,,,,,,sentence,,57,JJ,j,BKB,He found his brother.,stimuli/FAS_J1M-BKBR-04-09.wav,stimuli/FAS_J2M-BKBR-04-09.wav
html-keyboard-response,174,456556,0.0-12.0-0.15,,,,,,null,null,"<h1 style= ""font-size: 50px"">+
    </h1>",,,,,,,,,,,,,,,,,,,,
html-keyboard-response,175,457069,0.0-12.0-1.15,,,,,,null,null,"
            <p style= ""white-space: nowrap;text-align: center; padding: 20px; background-color: lightgray;"">
            The content of this audio is _<strong>He needed his vacation.</strong>_ 
            </p>",,,,,,,,,,,,,,,,,,,,
audio-keyboard-response,176,458992,0.0-12.0-2.15,,,,,,null,null,stimuli/FAS_M1M-BKBR-03-08.wav,,,,,,,,,,,,,,,,,,,,
html-keyboard-response,177,459511,0.0-12.0-3.15,,,,,,null,null,"
        <p style= ""white-space: nowrap;text-align: center; padding: 20px; background-color: lightgray;"">
        The content of this audio is _<strong>He needed his vacation.</strong>_ 
        </p>",,,,,,,,,,,,,,,,,,,,
audio-keyboard-response,178,461372,0.0-12.0-4.15,,,,,,null,null,stimuli/FAS_M6M-BKBR-03-08.wav,,,,,,,,,,,,,,,,,,,,
html-keyboard-response,179,461722,0.0-12.0-5.15,,,,,,348,f,"
        <p style= ""white-space: nowrap;text-align: center; padding: 20px; background-color: lightgray;"">
        The content of the audio is_<strong>He needed his vacation.</strong>_ 
        </p>
    <p style=""width: 100%""> 
    Press <span style=""background-color: yellow;"">[ F ] key</span> if the accents are different. Press <span style=""background-color: yellow;"">[ J ] key</span> if the accents are the same.
    <u>Please press the key accordingly.</u>
    </p>",,,,,,,,,,,,sentence,,40,MM,j,BKB,He needed his vacation.,stimuli/FAS_M1M-BKBR-03-08.wav,stimuli/FAS_M6M-BKBR-03-08.wav
html-keyboard-response,180,462735,0.0-12.0-0.16,,,,,,null,null,"<h1 style= ""font-size: 50px"">+
    </h1>",,,,,,,,,,,,,,,,,,,,
html-keyboard-response,181,463240,0.0-12.0-1.16,,,,,,null,null,"
            <p style= ""white-space: nowrap;text-align: center; padding: 20px; background-color: lightgray;"">
            The content of this audio is _<strong>They are crossing the street.</strong>_ 
            </p>",,,,,,,,,,,,,,,,,,,,
audio-keyboard-response,182,465092,0.0-12.0-2.16,,,,,,null,null,stimuli/FAS_J1M-BKBR-04-07.wav,,,,,,,,,,,,,,,,,,,,
html-keyboard-response,183,465601,0.0-12.0-3.16,,,,,,null,null,"
        <p style= ""white-space: nowrap;text-align: center; padding: 20px; background-color: lightgray;"">
        The content of this audio is _<strong>They are crossing the street.</strong>_ 
        </p>",,,,,,,,,,,,,,,,,,,,
audio-keyboard-response,184,467172,0.0-12.0-4.16,,,,,,null,null,stimuli/FAS_J2M-BKBR-04-07.wav,,,,,,,,,,,,,,,,,,,,
html-keyboard-response,185,469185,0.0-12.0-5.16,,,,,,2010,f,"
        <p style= ""white-space: nowrap;text-align: center; padding: 20px; background-color: lightgray;"">
        The content of the audio is_<strong>They are crossing the street.</strong>_ 
        </p>
    <p style=""width: 100%""> 
    Press <span style=""background-color: yellow;"">[ F ] key</span> if the accents are different. Press <span style=""background-color: yellow;"">[ J ] key</span> if the accents are the same.
    <u>Please press the key accordingly.</u>
    </p>",,,,,,,,,,,,sentence,,55,JJ,j,BKB,They are crossing the street.,stimuli/FAS_J1M-BKBR-04-07.wav,stimuli/FAS_J2M-BKBR-04-07.wav
html-keyboard-response,186,470199,0.0-12.0-0.17,,,,,,null,null,"<h1 style= ""font-size: 50px"">+
    </h1>",,,,,,,,,,,,,,,,,,,,
html-keyboard-response,187,470711,0.0-12.0-1.17,,,,,,null,null,"
            <p style= ""white-space: nowrap;text-align: center; padding: 20px; background-color: lightgray;"">
            The content of this audio is _<strong>They have two empty bottles.</strong>_ 
            </p>",,,,,,,,,,,,,,,,,,,,
audio-keyboard-response,188,473133,0.0-12.0-2.17,,,,,,null,null,stimuli/FAS_K9M-HINT-09-01.wav,,,,,,,,,,,,,,,,,,,,
html-keyboard-response,189,473649,0.0-12.0-3.17,,,,,,null,null,"
        <p style= ""white-space: nowrap;text-align: center; padding: 20px; background-color: lightgray;"">
        The content of this audio is _<strong>They have two empty bottles.</strong>_ 
        </p>",,,,,,,,,,,,,,,,,,,,
audio-keyboard-response,190,475392,0.0-12.0-4.17,,,,,,null,null,stimuli/FAS_M6M-HINT-09-01.wav,,,,,,,,,,,,,,,,,,,,
html-keyboard-response,191,475399,0.0-12.0-5.17,,,,,,5,f,"
        <p style= ""white-space: nowrap;text-align: center; padding: 20px; background-color: lightgray;"">
        The content of the audio is_<strong>They have two empty bottles.</strong>_ 
        </p>
    <p style=""width: 100%""> 
    Press <span style=""background-color: yellow;"">[ F ] key</span> if the accents are different. Press <span style=""background-color: yellow;"">[ J ] key</span> if the accents are the same.
    <u>Please press the key accordingly.</u>
    </p>",,,,,,,,,,,,sentence,,173,MK,f,HINT,They have two empty bottles.,stimuli/FAS_K9M-HINT-09-01.wav,stimuli/FAS_M6M-HINT-09-01.wav
html-keyboard-response,192,476407,0.0-12.0-0.18,,,,,,null,null,"<h1 style= ""font-size: 50px"">+
    </h1>",,,,,,,,,,,,,,,,,,,,
html-keyboard-response,193,476911,0.0-12.0-1.18,,,,,,null,null,"
            <p style= ""white-space: nowrap;text-align: center; padding: 20px; background-color: lightgray;"">
            The content of this audio is _<strong>The policeman knows the way.</strong>_ 
            </p>",,,,,,,,,,,,,,,,,,,,
audio-keyboard-response,194,478632,0.0-12.0-2.18,,,,,,null,null,stimuli/FAS_J2M-HINT-10-09.wav,,,,,,,,,,,,,,,,,,,,
html-keyboard-response,195,479140,0.0-12.0-3.18,,,,,,null,null,"
        <p style= ""white-space: nowrap;text-align: center; padding: 20px; background-color: lightgray;"">
        The content of this audio is _<strong>The policeman knows the way.</strong>_ 
        </p>",,,,,,,,,,,,,,,,,,,,
audio-keyboard-response,196,481572,0.0-12.0-4.18,,,,,,null,null,stimuli/FAS_K9M-HINT-10-09.wav,,,,,,,,,,,,,,,,,,,,
html-keyboard-response,197,481783,0.0-12.0-5.18,,,,,,208,f,"
        <p style= ""white-space: nowrap;text-align: center; padding: 20px; background-color: lightgray;"">
        The content of the audio is_<strong>The policeman knows the way.</strong>_ 
        </p>
    <p style=""width: 100%""> 
    Press <span style=""background-color: yellow;"">[ F ] key</span> if the accents are different. Press <span style=""background-color: yellow;"">[ J ] key</span> if the accents are the same.
    <u>Please press the key accordingly.</u>
    </p>",,,,,,,,,,,,sentence,,191,JK,f,HINT,The policeman knows the way.,stimuli/FAS_J2M-HINT-10-09.wav,stimuli/FAS_K9M-HINT-10-09.wav
html-keyboard-response,198,482796,0.0-12.0-0.19,,,,,,null,null,"<h1 style= ""font-size: 50px"">+
    </h1>",,,,,,,,,,,,,,,,,,,,
html-keyboard-response,199,483304,0.0-12.0-1.19,,,,,,null,null,"
            <p style= ""white-space: nowrap;text-align: center; padding: 20px; background-color: lightgray;"">
            The content of this audio is _<strong>The dog played with a stick.</strong>_ 
            </p>",,,,,,,,,,,,,,,,,,,,
audio-keyboard-response,200,485132,0.0-12.0-2.19,,,,,,null,null,stimuli/FAS_M6M-BKBR-03-02.wav,,,,,,,,,,,,,,,,,,,,
html-keyboard-response,201,485650,0.0-12.0-3.19,,,,,,null,null,"
        <p style= ""white-space: nowrap;text-align: center; padding: 20px; background-color: lightgray;"">
        The content of this audio is _<strong>The dog played with a stick.</strong>_ 
        </p>",,,,,,,,,,,,,,,,,,,,
audio-keyboard-response,202,487732,0.0-12.0-4.19,,,,,,null,null,stimuli/FAS_M1M-BKBR-03-02.wav,,,,,,,,,,,,,,,,,,,,
html-keyboard-response,203,489901,0.0-12.0-5.19,,,,,,2166,j,"
        <p style= ""white-space: nowrap;text-align: center; padding: 20px; background-color: lightgray;"">
        The content of the audio is_<strong>The dog played with a stick.</strong>_ 
        </p>
    <p style=""width: 100%""> 
    Press <span style=""background-color: yellow;"">[ F ] key</span> if the accents are different. Press <span style=""background-color: yellow;"">[ J ] key</span> if the accents are the same.
    <u>Please press the key accordingly.</u>
    </p>",,,,,,,,,,,,sentence,,34,MM,j,BKB,The dog played with a stick.,stimuli/FAS_M6M-BKBR-03-02.wav,stimuli/FAS_M1M-BKBR-03-02.wav
html-keyboard-response,204,490916,0.0-12.0-0.20,,,,,,null,null,"<h1 style= ""font-size: 50px"">+
    </h1>",,,,,,,,,,,,,,,,,,,,
html-keyboard-response,205,491419,0.0-12.0-1.20,,,,,,null,null,"
            <p style= ""white-space: nowrap;text-align: center; padding: 20px; background-color: lightgray;"">
            The content of this audio is _<strong>The man cleaned his shoes.</strong>_ 
            </p>",,,,,,,,,,,,,,,,,,,,
audio-keyboard-response,206,493152,0.0-12.0-2.20,,,,,,null,null,stimuli/FAS_M1M-BKBR-03-10.wav,,,,,,,,,,,,,,,,,,,,
html-keyboard-response,207,493662,0.0-12.0-3.20,,,,,,null,null,"
        <p style= ""white-space: nowrap;text-align: center; padding: 20px; background-color: lightgray;"">
        The content of this audio is _<strong>The man cleaned his shoes.</strong>_ 
        </p>",,,,,,,,,,,,,,,,,,,,
audio-keyboard-response,208,495512,0.0-12.0-4.20,,,,,,null,null,stimuli/FAS_M6M-BKBR-03-10.wav,,,,,,,,,,,,,,,,,,,,
html-keyboard-response,209,496557,0.0-12.0-5.20,,,,,,1043,f,"
        <p style= ""white-space: nowrap;text-align: center; padding: 20px; background-color: lightgray;"">
        The content of the audio is_<strong>The man cleaned his shoes.</strong>_ 
        </p>
    <p style=""width: 100%""> 
    Press <span style=""background-color: yellow;"">[ F ] key</span> if the accents are different. Press <span style=""background-color: yellow;"">[ J ] key</span> if the accents are the same.
    <u>Please press the key accordingly.</u>
    </p>",,,,,,,,,,,,sentence,,42,MM,j,BKB,The man cleaned his shoes.,stimuli/FAS_M1M-BKBR-03-10.wav,stimuli/FAS_M6M-BKBR-03-10.wav
html-keyboard-response,210,497569,0.0-12.0-0.21,,,,,,null,null,"<h1 style= ""font-size: 50px"">+
    </h1>",,,,,,,,,,,,,,,,,,,,
html-keyboard-response,211,498083,0.0-12.0-1.21,,,,,,null,null,"
            <p style= ""white-space: nowrap;text-align: center; padding: 20px; background-color: lightgray;"">
            The content of this audio is _<strong>A child ripped open the bag.</strong>_ 
            </p>",,,,,,,,,,,,,,,,,,,,
audio-keyboard-response,212,500472,0.0-12.0-2.21,,,,,,null,null,stimuli/FAS_K9M-HINT-09-04.wav,,,,,,,,,,,,,,,,,,,,
html-keyboard-response,213,500980,0.0-12.0-3.21,,,,,,null,null,"
        <p style= ""white-space: nowrap;text-align: center; padding: 20px; background-color: lightgray;"">
        The content of this audio is _<strong>A child ripped open the bag.</strong>_ 
        </p>",,,,,,,,,,,,,,,,,,,,
audio-keyboard-response,214,503072,0.0-12.0-4.21,,,,,,null,null,stimuli/FAS_M6M-HINT-09-04.wav,,,,,,,,,,,,,,,,,,,,
html-keyboard-response,215,503474,0.0-12.0-5.21,,,,,,400,f,"
        <p style= ""white-space: nowrap;text-align: center; padding: 20px; background-color: lightgray;"">
        The content of the audio is_<strong>A child ripped open the bag.</strong>_ 
        </p>
    <p style=""width: 100%""> 
    Press <span style=""background-color: yellow;"">[ F ] key</span> if the accents are different. Press <span style=""background-color: yellow;"">[ J ] key</span> if the accents are the same.
    <u>Please press the key accordingly.</u>
    </p>",,,,,,,,,,,,sentence,,176,MK,f,HINT,A child ripped open the bag.,stimuli/FAS_K9M-HINT-09-04.wav,stimuli/FAS_M6M-HINT-09-04.wav
html-keyboard-response,216,504481,0.0-12.0-0.22,,,,,,null,null,"<h1 style= ""font-size: 50px"">+
    </h1>",,,,,,,,,,,,,,,,,,,,
html-keyboard-response,217,504990,0.0-12.0-1.22,,,,,,null,null,"
            <p style= ""white-space: nowrap;text-align: center; padding: 20px; background-color: lightgray;"">
            The content of this audio is _<strong>They're pushing an old car.</strong>_ 
            </p>",,,,,,,,,,,,,,,,,,,,
audio-keyboard-response,218,506552,0.0-12.0-2.22,,,,,,null,null,stimuli/FAS_E1M-HINT-01-10.wav,,,,,,,,,,,,,,,,,,,,
html-keyboard-response,219,507059,0.0-12.0-3.22,,,,,,null,null,"
        <p style= ""white-space: nowrap;text-align: center; padding: 20px; background-color: lightgray;"">
        The content of this audio is _<strong>They're pushing an old car.</strong>_ 
        </p>",,,,,,,,,,,,,,,,,,,,
audio-keyboard-response,220,508791,0.0-12.0-4.22,,,,,,null,null,stimuli/FAS_M6M-HINT-01-10.wav,,,,,,,,,,,,,,,,,,,,
html-keyboard-response,221,509417,0.0-12.0-5.22,,,,,,623,j,"
        <p style= ""white-space: nowrap;text-align: center; padding: 20px; background-color: lightgray;"">
        The content of the audio is_<strong>They're pushing an old car.</strong>_ 
        </p>
    <p style=""width: 100%""> 
    Press <span style=""background-color: yellow;"">[ F ] key</span> if the accents are different. Press <span style=""background-color: yellow;"">[ J ] key</span> if the accents are the same.
    <u>Please press the key accordingly.</u>
    </p>",,,,,,,,,,,,sentence,,102,EM,f,HINT,They're pushing an old car.,stimuli/FAS_E1M-HINT-01-10.wav,stimuli/FAS_M6M-HINT-01-10.wav
html-keyboard-response,222,510426,0.0-12.0-0.23,,,,,,null,null,"<h1 style= ""font-size: 50px"">+
    </h1>",,,,,,,,,,,,,,,,,,,,
html-keyboard-response,223,510930,0.0-12.0-1.23,,,,,,null,null,"
            <p style= ""white-space: nowrap;text-align: center; padding: 20px; background-color: lightgray;"">
            The content of this audio is _<strong>The dog sleeps in the basket.</strong>_ 
            </p>",,,,,,,,,,,,,,,,,,,,
audio-keyboard-response,224,513172,0.0-12.0-2.23,,,,,,null,null,stimuli/FAS_J1M-HINT-03-03.wav,,,,,,,,,,,,,,,,,,,,
html-keyboard-response,225,513687,0.0-12.0-3.23,,,,,,null,null,"
        <p style= ""white-space: nowrap;text-align: center; padding: 20px; background-color: lightgray;"">
        The content of this audio is _<strong>The dog sleeps in the basket.</strong>_ 
        </p>",,,,,,,,,,,,,,,,,,,,
audio-keyboard-response,226,515692,0.0-12.0-4.23,,,,,,null,null,stimuli/FAS_E1M-HINT-03-03.wav,,,,,,,,,,,,,,,,,,,,
html-keyboard-response,227,516423,0.0-12.0-5.23,,,,,,728,f,"
        <p style= ""white-space: nowrap;text-align: center; padding: 20px; background-color: lightgray;"">
        The content of the audio is_<strong>The dog sleeps in the basket.</strong>_ 
        </p>
    <p style=""width: 100%""> 
    Press <span style=""background-color: yellow;"">[ F ] key</span> if the accents are different. Press <span style=""background-color: yellow;"">[ J ] key</span> if the accents are the same.
    <u>Please press the key accordingly.</u>
    </p>",,,,,,,,,,,,sentence,,115,EJ,f,HINT,The dog sleeps in the basket.,stimuli/FAS_J1M-HINT-03-03.wav,stimuli/FAS_E1M-HINT-03-03.wav
html-keyboard-response,228,517439,0.0-12.0-0.24,,,,,,null,null,"<h1 style= ""font-size: 50px"">+
    </h1>",,,,,,,,,,,,,,,,,,,,
html-keyboard-response,229,517946,0.0-12.0-1.24,,,,,,null,null,"
            <p style= ""white-space: nowrap;text-align: center; padding: 20px; background-color: lightgray;"">
            The content of this audio is _<strong>She's helping her friend move.</strong>_ 
            </p>",,,,,,,,,,,,,,,,,,,,
audio-keyboard-response,230,520732,0.0-12.0-2.24,,,,,,null,null,stimuli/FAS_K7M-HINT-09-06.wav,,,,,,,,,,,,,,,,,,,,
html-keyboard-response,231,521249,0.0-12.0-3.24,,,,,,null,null,"
        <p style= ""white-space: nowrap;text-align: center; padding: 20px; background-color: lightgray;"">
        The content of this audio is _<strong>She's helping her friend move.</strong>_ 
        </p>",,,,,,,,,,,,,,,,,,,,
audio-keyboard-response,232,523452,0.0-12.0-4.24,,,,,,null,null,stimuli/FAS_J1M-HINT-09-06.wav,,,,,,,,,,,,,,,,,,,,
html-keyboard-response,233,524059,0.0-12.0-5.24,,,,,,604,f,"
        <p style= ""white-space: nowrap;text-align: center; padding: 20px; background-color: lightgray;"">
        The content of the audio is_<strong>She's helping her friend move.</strong>_ 
        </p>
    <p style=""width: 100%""> 
    Press <span style=""background-color: yellow;"">[ F ] key</span> if the accents are different. Press <span style=""background-color: yellow;"">[ J ] key</span> if the accents are the same.
    <u>Please press the key accordingly.</u>
    </p>",,,,,,,,,,,,sentence,,178,JK,f,HINT,She's helping her friend move.,stimuli/FAS_K7M-HINT-09-06.wav,stimuli/FAS_J1M-HINT-09-06.wav
html-keyboard-response,234,525072,0.0-12.0-0.25,,,,,,null,null,"<h1 style= ""font-size: 50px"">+
    </h1>",,,,,,,,,,,,,,,,,,,,
html-keyboard-response,235,525574,0.0-12.0-1.25,,,,,,null,null,"
            <p style= ""white-space: nowrap;text-align: center; padding: 20px; background-color: lightgray;"">
            The content of this audio is _<strong>The thin dog was hungry.</strong>_ 
            </p>",,,,,,,,,,,,,,,,,,,,
audio-keyboard-response,236,527132,0.0-12.0-2.25,,,,,,null,null,stimuli/FAS_E5M-BKBR-02-06.wav,,,,,,,,,,,,,,,,,,,,
html-keyboard-response,237,527642,0.0-12.0-3.25,,,,,,null,null,"
        <p style= ""white-space: nowrap;text-align: center; padding: 20px; background-color: lightgray;"">
        The content of this audio is _<strong>The thin dog was hungry.</strong>_ 
        </p>",,,,,,,,,,,,,,,,,,,,
audio-keyboard-response,238,529132,0.0-12.0-4.25,,,,,,null,null,stimuli/FAS_E1M-BKBR-02-06.wav,,,,,,,,,,,,,,,,,,,,
html-keyboard-response,239,530160,0.0-12.0-5.25,,,,,,1025,f,"
        <p style= ""white-space: nowrap;text-align: center; padding: 20px; background-color: lightgray;"">
        The content of the audio is_<strong>The thin dog was hungry.</strong>_ 
        </p>
    <p style=""width: 100%""> 
    Press <span style=""background-color: yellow;"">[ F ] key</span> if the accents are different. Press <span style=""background-color: yellow;"">[ J ] key</span> if the accents are the same.
    <u>Please press the key accordingly.</u>
    </p>",,,,,,,,,,,,sentence,,22,EE,j,BKB,The thin dog was hungry.,stimuli/FAS_E5M-BKBR-02-06.wav,stimuli/FAS_E1M-BKBR-02-06.wav
html-keyboard-response,240,531172,0.0-12.0-0.26,,,,,,null,null,"<h1 style= ""font-size: 50px"">+
    </h1>",,,,,,,,,,,,,,,,,,,,
html-keyboard-response,241,531676,0.0-12.0-1.26,,,,,,null,null,"
            <p style= ""white-space: nowrap;text-align: center; padding: 20px; background-color: lightgray;"">
            The content of this audio is _<strong>They finished dinner on time.</strong>_ 
            </p>",,,,,,,,,,,,,,,,,,,,
audio-keyboard-response,242,533292,0.0-12.0-2.26,,,,,,null,null,stimuli/FAS_J2M-HINT-04-05.wav,,,,,,,,,,,,,,,,,,,,
html-keyboard-response,243,533799,0.0-12.0-3.26,,,,,,null,null,"
        <p style= ""white-space: nowrap;text-align: center; padding: 20px; background-color: lightgray;"">
        The content of this audio is _<strong>They finished dinner on time.</strong>_ 
        </p>",,,,,,,,,,,,,,,,,,,,
audio-keyboard-response,244,535592,0.0-12.0-4.26,,,,,,null,null,stimuli/FAS_E5M-HINT-04-05.wav,,,,,,,,,,,,,,,,,,,,
html-keyboard-response,245,535938,0.0-12.0-5.26,,,,,,345,f,"
        <p style= ""white-space: nowrap;text-align: center; padding: 20px; background-color: lightgray;"">
        The content of the audio is_<strong>They finished dinner on time.</strong>_ 
        </p>
    <p style=""width: 100%""> 
    Press <span style=""background-color: yellow;"">[ F ] key</span> if the accents are different. Press <span style=""background-color: yellow;"">[ J ] key</span> if the accents are the same.
    <u>Please press the key accordingly.</u>
    </p>",,,,,,,,,,,,sentence,,127,EJ,f,HINT,They finished dinner on time.,stimuli/FAS_J2M-HINT-04-05.wav,stimuli/FAS_E5M-HINT-04-05.wav
html-keyboard-response,246,536945,0.0-12.0-0.27,,,,,,null,null,"<h1 style= ""font-size: 50px"">+
    </h1>",,,,,,,,,,,,,,,,,,,,
html-keyboard-response,247,537451,0.0-12.0-1.27,,,,,,null,null,"
            <p style= ""white-space: nowrap;text-align: center; padding: 20px; background-color: lightgray;"">
            The content of this audio is _<strong>The shirts are in the closet.</strong>_ 
            </p>",,,,,,,,,,,,,,,,,,,,
audio-keyboard-response,248,540092,0.0-12.0-2.27,,,,,,null,null,stimuli/FAS_K7M-HINT-05-05.wav,,,,,,,,,,,,,,,,,,,,
html-keyboard-response,249,540601,0.0-12.0-3.27,,,,,,null,null,"
        <p style= ""white-space: nowrap;text-align: center; padding: 20px; background-color: lightgray;"">
        The content of this audio is _<strong>The shirts are in the closet.</strong>_ 
        </p>",,,,,,,,,,,,,,,,,,,,
audio-keyboard-response,250,542352,0.0-12.0-4.27,,,,,,null,null,stimuli/FAS_E5M-HINT-05-05.wav,,,,,,,,,,,,,,,,,,,,
html-keyboard-response,251,543070,0.0-12.0-5.27,,,,,,715,j,"
        <p style= ""white-space: nowrap;text-align: center; padding: 20px; background-color: lightgray;"">
        The content of the audio is_<strong>The shirts are in the closet.</strong>_ 
        </p>
    <p style=""width: 100%""> 
    Press <span style=""background-color: yellow;"">[ F ] key</span> if the accents are different. Press <span style=""background-color: yellow;"">[ J ] key</span> if the accents are the same.
    <u>Please press the key accordingly.</u>
    </p>",,,,,,,,,,,,sentence,,137,EK,f,HINT,The shirts are in the closet.,stimuli/FAS_K7M-HINT-05-05.wav,stimuli/FAS_E5M-HINT-05-05.wav
html-keyboard-response,252,544089,0.0-12.0-0.28,,,,,,null,null,"<h1 style= ""font-size: 50px"">+
    </h1>",,,,,,,,,,,,,,,,,,,,
html-keyboard-response,253,544599,0.0-12.0-1.28,,,,,,null,null,"
            <p style= ""white-space: nowrap;text-align: center; padding: 20px; background-color: lightgray;"">
            The content of this audio is _<strong>Father forgot the bread.</strong>_ 
            </p>",,,,,,,,,,,,,,,,,,,,
audio-keyboard-response,254,546392,0.0-12.0-2.28,,,,,,null,null,stimuli/FAS_K7M-HINT-09-08.wav,,,,,,,,,,,,,,,,,,,,
html-keyboard-response,255,546897,0.0-12.0-3.28,,,,,,null,null,"
        <p style= ""white-space: nowrap;text-align: center; padding: 20px; background-color: lightgray;"">
        The content of this audio is _<strong>Father forgot the bread.</strong>_ 
        </p>",,,,,,,,,,,,,,,,,,,,
audio-keyboard-response,256,548592,0.0-12.0-4.28,,,,,,null,null,stimuli/FAS_J1M-HINT-09-08.wav,,,,,,,,,,,,,,,,,,,,
html-keyboard-response,257,548761,0.0-12.0-5.28,,,,,,168,f,"
        <p style= ""white-space: nowrap;text-align: center; padding: 20px; background-color: lightgray;"">
        The content of the audio is_<strong>Father forgot the bread.</strong>_ 
        </p>
    <p style=""width: 100%""> 
    Press <span style=""background-color: yellow;"">[ F ] key</span> if the accents are different. Press <span style=""background-color: yellow;"">[ J ] key</span> if the accents are the same.
    <u>Please press the key accordingly.</u>
    </p>",,,,,,,,,,,,sentence,,180,JK,f,HINT,Father forgot the bread.,stimuli/FAS_K7M-HINT-09-08.wav,stimuli/FAS_J1M-HINT-09-08.wav
html-keyboard-response,258,549767,0.0-12.0-0.29,,,,,,null,null,"<h1 style= ""font-size: 50px"">+
    </h1>",,,,,,,,,,,,,,,,,,,,
html-keyboard-response,259,550283,0.0-12.0-1.29,,,,,,null,null,"
            <p style= ""white-space: nowrap;text-align: center; padding: 20px; background-color: lightgray;"">
            The content of this audio is _<strong>School got out early today.</strong>_ 
            </p>",,,,,,,,,,,,,,,,,,,,
audio-keyboard-response,260,552212,0.0-12.0-2.29,,,,,,null,null,stimuli/FAS_M6M-HINT-07-01.wav,,,,,,,,,,,,,,,,,,,,
html-keyboard-response,261,552730,0.0-12.0-3.29,,,,,,null,null,"
        <p style= ""white-space: nowrap;text-align: center; padding: 20px; background-color: lightgray;"">
        The content of this audio is _<strong>School got out early today.</strong>_ 
        </p>",,,,,,,,,,,,,,,,,,,,
audio-keyboard-response,262,554912,0.0-12.0-4.29,,,,,,null,null,stimuli/FAS_J1M-HINT-07-01.wav,,,,,,,,,,,,,,,,,,,,
html-keyboard-response,263,556089,0.0-12.0-5.29,,,,,,1175,f,"
        <p style= ""white-space: nowrap;text-align: center; padding: 20px; background-color: lightgray;"">
        The content of the audio is_<strong>School got out early today.</strong>_ 
        </p>
    <p style=""width: 100%""> 
    Press <span style=""background-color: yellow;"">[ F ] key</span> if the accents are different. Press <span style=""background-color: yellow;"">[ J ] key</span> if the accents are the same.
    <u>Please press the key accordingly.</u>
    </p>",,,,,,,,,,,,sentence,,153,MJ,f,HINT,School got out early today.,stimuli/FAS_M6M-HINT-07-01.wav,stimuli/FAS_J1M-HINT-07-01.wav
html-keyboard-response,264,557102,0.0-12.0-0.30,,,,,,null,null,"<h1 style= ""font-size: 50px"">+
    </h1>",,,,,,,,,,,,,,,,,,,,
html-keyboard-response,265,557609,0.0-12.0-1.30,,,,,,null,null,"
            <p style= ""white-space: nowrap;text-align: center; padding: 20px; background-color: lightgray;"">
            The content of this audio is _<strong>The father is coming home.</strong>_ 
            </p>",,,,,,,,,,,,,,,,,,,,
audio-keyboard-response,266,559412,0.0-12.0-2.30,,,,,,null,null,stimuli/FAS_K7M-BKBR-06-08.wav,,,,,,,,,,,,,,,,,,,,
html-keyboard-response,267,559925,0.0-12.0-3.30,,,,,,null,null,"
        <p style= ""white-space: nowrap;text-align: center; padding: 20px; background-color: lightgray;"">
        The content of this audio is _<strong>The father is coming home.</strong>_ 
        </p>",,,,,,,,,,,,,,,,,,,,
audio-keyboard-response,268,561632,0.0-12.0-4.30,,,,,,null,null,stimuli/FAS_K9M-BKBR-06-08.wav,,,,,,,,,,,,,,,,,,,,
html-keyboard-response,269,562670,0.0-12.0-5.30,,,,,,1035,f,"
        <p style= ""white-space: nowrap;text-align: center; padding: 20px; background-color: lightgray;"">
        The content of the audio is_<strong>The father is coming home.</strong>_ 
        </p>
    <p style=""width: 100%""> 
    Press <span style=""background-color: yellow;"">[ F ] key</span> if the accents are different. Press <span style=""background-color: yellow;"">[ J ] key</span> if the accents are the same.
    <u>Please press the key accordingly.</u>
    </p>",,,,,,,,,,,,sentence,,88,KK,j,BKB,The father is coming home.,stimuli/FAS_K7M-BKBR-06-08.wav,stimuli/FAS_K9M-BKBR-06-08.wav
html-keyboard-response,270,563675,0.0-12.0-0.31,,,,,,null,null,"<h1 style= ""font-size: 50px"">+
    </h1>",,,,,,,,,,,,,,,,,,,,
html-keyboard-response,271,564181,0.0-12.0-1.31,,,,,,null,null,"
            <p style= ""white-space: nowrap;text-align: center; padding: 20px; background-color: lightgray;"">
            The content of this audio is _<strong>The dinner plate was hot.</strong>_ 
            </p>",,,,,,,,,,,,,,,,,,,,
audio-keyboard-response,272,565792,0.0-12.0-2.31,,,,,,null,null,stimuli/FAS_J2M-HINT-06-07.wav,,,,,,,,,,,,,,,,,,,,
html-keyboard-response,273,566306,0.0-12.0-3.31,,,,,,null,null,"
        <p style= ""white-space: nowrap;text-align: center; padding: 20px; background-color: lightgray;"">
        The content of this audio is _<strong>The dinner plate was hot.</strong>_ 
        </p>",,,,,,,,,,,,,,,,,,,,
audio-keyboard-response,274,568252,0.0-12.0-4.31,,,,,,null,null,stimuli/FAS_M1M-HINT-06-07.wav,,,,,,,,,,,,,,,,,,,,
html-keyboard-response,275,568952,0.0-12.0-5.31,,,,,,698,f,"
        <p style= ""white-space: nowrap;text-align: center; padding: 20px; background-color: lightgray;"">
        The content of the audio is_<strong>The dinner plate was hot.</strong>_ 
        </p>
    <p style=""width: 100%""> 
    Press <span style=""background-color: yellow;"">[ F ] key</span> if the accents are different. Press <span style=""background-color: yellow;"">[ J ] key</span> if the accents are the same.
    <u>Please press the key accordingly.</u>
    </p>",,,,,,,,,,,,sentence,,149,MJ,f,HINT,The dinner plate was hot.,stimuli/FAS_J2M-HINT-06-07.wav,stimuli/FAS_M1M-HINT-06-07.wav
html-keyboard-response,276,569967,0.0-12.0-0.32,,,,,,null,null,"<h1 style= ""font-size: 50px"">+
    </h1>",,,,,,,,,,,,,,,,,,,,
html-keyboard-response,277,570489,0.0-12.0-1.32,,,,,,null,null,"
            <p style= ""white-space: nowrap;text-align: center; padding: 20px; background-color: lightgray;"">
            The content of this audio is _<strong>The car engine is running.</strong>_ 
            </p>",,,,,,,,,,,,,,,,,,,,
audio-keyboard-response,278,572030,0.0-12.0-2.32,,,,,,null,null,stimuli/FAS_E1M-BKBR-01-02.wav,,,,,,,,,,,,,,,,,,,,
html-keyboard-response,279,572539,0.0-12.0-3.32,,,,,,null,null,"
        <p style= ""white-space: nowrap;text-align: center; padding: 20px; background-color: lightgray;"">
        The content of this audio is _<strong>The car engine is running.</strong>_ 
        </p>",,,,,,,,,,,,,,,,,,,,
audio-keyboard-response,280,574190,0.0-12.0-4.32,,,,,,null,null,stimuli/FAS_E5M-BKBR-01-02.wav,,,,,,,,,,,,,,,,,,,,
html-keyboard-response,281,575229,0.0-12.0-5.32,,,,,,1038,j,"
        <p style= ""white-space: nowrap;text-align: center; padding: 20px; background-color: lightgray;"">
        The content of the audio is_<strong>The car engine is running.</strong>_ 
        </p>
    <p style=""width: 100%""> 
    Press <span style=""background-color: yellow;"">[ F ] key</span> if the accents are different. Press <span style=""background-color: yellow;"">[ J ] key</span> if the accents are the same.
    <u>Please press the key accordingly.</u>
    </p>",,,,,,,,,,,,sentence,,2,EE,j,BKB,The car engine is running.,stimuli/FAS_E1M-BKBR-01-02.wav,stimuli/FAS_E5M-BKBR-01-02.wav
html-keyboard-response,282,576239,0.0-12.0-0.33,,,,,,null,null,"<h1 style= ""font-size: 50px"">+
    </h1>",,,,,,,,,,,,,,,,,,,,
html-keyboard-response,283,576752,0.0-12.0-1.33,,,,,,null,null,"
            <p style= ""white-space: nowrap;text-align: center; padding: 20px; background-color: lightgray;"">
            The content of this audio is _<strong>She lost her credit card.</strong>_ 
            </p>",,,,,,,,,,,,,,,,,,,,
audio-keyboard-response,284,578532,0.0-12.0-2.33,,,,,,null,null,stimuli/FAS_E5M-HINT-03-09.wav,,,,,,,,,,,,,,,,,,,,
html-keyboard-response,285,579049,0.0-12.0-3.33,,,,,,null,null,"
        <p style= ""white-space: nowrap;text-align: center; padding: 20px; background-color: lightgray;"">
        The content of this audio is _<strong>She lost her credit card.</strong>_ 
        </p>",,,,,,,,,,,,,,,,,,,,
audio-keyboard-response,286,581092,0.0-12.0-4.33,,,,,,null,null,stimuli/FAS_J1M-HINT-03-09.wav,,,,,,,,,,,,,,,,,,,,
html-keyboard-response,287,581644,0.0-12.0-5.33,,,,,,549,f,"
        <p style= ""white-space: nowrap;text-align: center; padding: 20px; background-color: lightgray;"">
        The content of the audio is_<strong>She lost her credit card.</strong>_ 
        </p>
    <p style=""width: 100%""> 
    Press <span style=""background-color: yellow;"">[ F ] key</span> if the accents are different. Press <span style=""background-color: yellow;"">[ J ] key</span> if the accents are the same.
    <u>Please press the key accordingly.</u>
    </p>",,,,,,,,,,,,sentence,,121,EJ,f,HINT,She lost her credit card.,stimuli/FAS_E5M-HINT-03-09.wav,stimuli/FAS_J1M-HINT-03-09.wav
html-keyboard-response,288,582651,0.0-12.0-0.34,,,,,,null,null,"<h1 style= ""font-size: 50px"">+
    </h1>",,,,,,,,,,,,,,,,,,,,
html-keyboard-response,289,583156,0.0-12.0-1.34,,,,,,null,null,"
            <p style= ""white-space: nowrap;text-align: center; padding: 20px; background-color: lightgray;"">
            The content of this audio is _<strong>He cut his finger.</strong>_ 
            </p>",,,,,,,,,,,,,,,,,,,,
audio-keyboard-response,290,584492,0.0-12.0-2.34,,,,,,null,null,stimuli/FAS_E5M-BKBR-02-05.wav,,,,,,,,,,,,,,,,,,,,
html-keyboard-response,291,585006,0.0-12.0-3.34,,,,,,null,null,"
        <p style= ""white-space: nowrap;text-align: center; padding: 20px; background-color: lightgray;"">
        The content of this audio is _<strong>He cut his finger.</strong>_ 
        </p>",,,,,,,,,,,,,,,,,,,,
audio-keyboard-response,292,586192,0.0-12.0-4.34,,,,,,null,null,stimuli/FAS_E1M-BKBR-02-05.wav,,,,,,,,,,,,,,,,,,,,
html-keyboard-response,293,586372,0.0-12.0-5.34,,,,,,178,j,"
        <p style= ""white-space: nowrap;text-align: center; padding: 20px; background-color: lightgray;"">
        The content of the audio is_<strong>He cut his finger.</strong>_ 
        </p>
    <p style=""width: 100%""> 
    Press <span style=""background-color: yellow;"">[ F ] key</span> if the accents are different. Press <span style=""background-color: yellow;"">[ J ] key</span> if the accents are the same.
    <u>Please press the key accordingly.</u>
    </p>",,,,,,,,,,,,sentence,,21,EE,j,BKB,He cut his finger.,stimuli/FAS_E5M-BKBR-02-05.wav,stimuli/FAS_E1M-BKBR-02-05.wav
html-keyboard-response,294,587389,0.0-12.0-0.35,,,,,,null,null,"<h1 style= ""font-size: 50px"">+
    </h1>",,,,,,,,,,,,,,,,,,,,
html-keyboard-response,295,587907,0.0-12.0-1.35,,,,,,null,null,"
            <p style= ""white-space: nowrap;text-align: center; padding: 20px; background-color: lightgray;"">
            The content of this audio is _<strong>A lady went to the store.</strong>_ 
            </p>",,,,,,,,,,,,,,,,,,,,
audio-keyboard-response,296,589552,0.0-12.0-2.35,,,,,,null,null,stimuli/FAS_K9M-HINT-01-02.wav,,,,,,,,,,,,,,,,,,,,
html-keyboard-response,297,590055,0.0-12.0-3.35,,,,,,null,null,"
        <p style= ""white-space: nowrap;text-align: center; padding: 20px; background-color: lightgray;"">
        The content of this audio is _<strong>A lady went to the store.</strong>_ 
        </p>",,,,,,,,,,,,,,,,,,,,
audio-keyboard-response,298,592412,0.0-12.0-4.35,,,,,,null,null,stimuli/FAS_K7M-HINT-01-02.wav,,,,,,,,,,,,,,,,,,,,
html-keyboard-response,299,595348,0.0-12.0-5.35,,,,,,2933,f,"
        <p style= ""white-space: nowrap;text-align: center; padding: 20px; background-color: lightgray;"">
        The content of the audio is_<strong>A lady went to the store.</strong>_ 
        </p>
    <p style=""width: 100%""> 
    Press <span style=""background-color: yellow;"">[ F ] key</span> if the accents are different. Press <span style=""background-color: yellow;"">[ J ] key</span> if the accents are the same.
    <u>Please press the key accordingly.</u>
    </p>",,,,,,,,,,,,sentence,,94,KK,j,HINT,A lady went to the store.,stimuli/FAS_K9M-HINT-01-02.wav,stimuli/FAS_K7M-HINT-01-02.wav
html-keyboard-response,300,596365,0.0-12.0-0.36,,,,,,null,null,"<h1 style= ""font-size: 50px"">+
    </h1>",,,,,,,,,,,,,,,,,,,,
html-keyboard-response,301,596875,0.0-12.0-1.36,,,,,,null,null,"
            <p style= ""white-space: nowrap;text-align: center; padding: 20px; background-color: lightgray;"">
            The content of this audio is _<strong>Snow falls at Christmas.</strong>_ 
            </p>",,,,,,,,,,,,,,,,,,,,
audio-keyboard-response,302,598590,0.0-12.0-2.36,,,,,,null,null,stimuli/FAS_E1M-BKBR-02-08.wav,,,,,,,,,,,,,,,,,,,,
html-keyboard-response,303,599110,0.0-12.0-3.36,,,,,,null,null,"
        <p style= ""white-space: nowrap;text-align: center; padding: 20px; background-color: lightgray;"">
        The content of this audio is _<strong>Snow falls at Christmas.</strong>_ 
        </p>",,,,,,,,,,,,,,,,,,,,
audio-keyboard-response,304,600632,0.0-12.0-4.36,,,,,,null,null,stimuli/FAS_E5M-BKBR-02-08.wav,,,,,,,,,,,,,,,,,,,,
html-keyboard-response,305,600742,0.0-12.0-5.36,,,,,,107,j,"
        <p style= ""white-space: nowrap;text-align: center; padding: 20px; background-color: lightgray;"">
        The content of the audio is_<strong>Snow falls at Christmas.</strong>_ 
        </p>
    <p style=""width: 100%""> 
    Press <span style=""background-color: yellow;"">[ F ] key</span> if the accents are different. Press <span style=""background-color: yellow;"">[ J ] key</span> if the accents are the same.
    <u>Please press the key accordingly.</u>
    </p>",,,,,,,,,,,,sentence,,24,EE,j,BKB,Snow falls at Christmas.,stimuli/FAS_E1M-BKBR-02-08.wav,stimuli/FAS_E5M-BKBR-02-08.wav
html-keyboard-response,306,601756,0.0-12.0-0.37,,,,,,null,null,"<h1 style= ""font-size: 50px"">+
    </h1>",,,,,,,,,,,,,,,,,,,,
html-keyboard-response,307,602269,0.0-12.0-1.37,,,,,,null,null,"
            <p style= ""white-space: nowrap;text-align: center; padding: 20px; background-color: lightgray;"">
            The content of this audio is _<strong>She found her purse.</strong>_ 
            </p>",,,,,,,,,,,,,,,,,,,,
audio-keyboard-response,308,603771,0.0-12.0-2.37,,,,,,null,null,stimuli/FAS_J2M-BKBR-07-04.wav,,,,,,,,,,,,,,,,,,,,
html-keyboard-response,309,604275,0.0-12.0-3.37,,,,,,null,null,"
        <p style= ""white-space: nowrap;text-align: center; padding: 20px; background-color: lightgray;"">
        The content of this audio is _<strong>She found her purse.</strong>_ 
        </p>",,,,,,,,,,,,,,,,,,,,
audio-keyboard-response,310,605912,0.0-12.0-4.37,,,,,,null,null,stimuli/FAS_E1M-BKBR-07-04.wav,,,,,,,,,,,,,,,,,,,,
html-keyboard-response,311,605976,0.0-12.0-5.37,,,,,,61,j,"
        <p style= ""white-space: nowrap;text-align: center; padding: 20px; background-color: lightgray;"">
        The content of the audio is_<strong>She found her purse.</strong>_ 
        </p>
    <p style=""width: 100%""> 
    Press <span style=""background-color: yellow;"">[ F ] key</span> if the accents are different. Press <span style=""background-color: yellow;"">[ J ] key</span> if the accents are the same.
    <u>Please press the key accordingly.</u>
    </p>",,,,,,,,,,,,sentence,,117,EJ,f,BKB,She found her purse.,stimuli/FAS_J2M-BKBR-07-04.wav,stimuli/FAS_E1M-BKBR-07-04.wav
html-keyboard-response,312,606979,0.0-12.0-0.38,,,,,,null,null,"<h1 style= ""font-size: 50px"">+
    </h1>",,,,,,,,,,,,,,,,,,,,
html-keyboard-response,313,607490,0.0-12.0-1.38,,,,,,null,null,"
            <p style= ""white-space: nowrap;text-align: center; padding: 20px; background-color: lightgray;"">
            The content of this audio is _<strong>The boy knew the game.</strong>_ 
            </p>",,,,,,,,,,,,,,,,,,,,
audio-keyboard-response,314,608972,0.0-12.0-2.38,,,,,,null,null,stimuli/FAS_E5M-BKBR-02-07.wav,,,,,,,,,,,,,,,,,,,,
html-keyboard-response,315,609483,0.0-12.0-3.38,,,,,,null,null,"
        <p style= ""white-space: nowrap;text-align: center; padding: 20px; background-color: lightgray;"">
        The content of this audio is _<strong>The boy knew the game.</strong>_ 
        </p>",,,,,,,,,,,,,,,,,,,,
audio-keyboard-response,316,610870,0.0-12.0-4.38,,,,,,null,null,stimuli/FAS_E1M-BKBR-02-07.wav,,,,,,,,,,,,,,,,,,,,
html-keyboard-response,317,610884,0.0-12.0-5.38,,,,,,12,j,"
        <p style= ""white-space: nowrap;text-align: center; padding: 20px; background-color: lightgray;"">
        The content of the audio is_<strong>The boy knew the game.</strong>_ 
        </p>
    <p style=""width: 100%""> 
    Press <span style=""background-color: yellow;"">[ F ] key</span> if the accents are different. Press <span style=""background-color: yellow;"">[ J ] key</span> if the accents are the same.
    <u>Please press the key accordingly.</u>
    </p>",,,,,,,,,,,,sentence,,23,EE,j,BKB,The boy knew the game.,stimuli/FAS_E5M-BKBR-02-07.wav,stimuli/FAS_E1M-BKBR-02-07.wav
html-keyboard-response,318,611889,0.0-12.0-0.39,,,,,,null,null,"<h1 style= ""font-size: 50px"">+
    </h1>",,,,,,,,,,,,,,,,,,,,
html-keyboard-response,319,612405,0.0-12.0-1.39,,,,,,null,null,"
            <p style= ""white-space: nowrap;text-align: center; padding: 20px; background-color: lightgray;"">
            The content of this audio is _<strong>A fire truck is coming.</strong>_ 
            </p>",,,,,,,,,,,,,,,,,,,,
audio-keyboard-response,320,614175,0.0-12.0-2.39,,,,,,null,null,stimuli/FAS_J2M-HINT-07-06.wav,,,,,,,,,,,,,,,,,,,,
html-keyboard-response,321,614684,0.0-12.0-3.39,,,,,,null,null,"
        <p style= ""white-space: nowrap;text-align: center; padding: 20px; background-color: lightgray;"">
        The content of this audio is _<strong>A fire truck is coming.</strong>_ 
        </p>",,,,,,,,,,,,,,,,,,,,
audio-keyboard-response,322,616533,0.0-12.0-4.39,,,,,,null,null,stimuli/FAS_M6M-HINT-07-06.wav,,,,,,,,,,,,,,,,,,,,
html-keyboard-response,323,617154,0.0-12.0-5.39,,,,,,618,j,"
        <p style= ""white-space: nowrap;text-align: center; padding: 20px; background-color: lightgray;"">
        The content of the audio is_<strong>A fire truck is coming.</strong>_ 
        </p>
    <p style=""width: 100%""> 
    Press <span style=""background-color: yellow;"">[ F ] key</span> if the accents are different. Press <span style=""background-color: yellow;"">[ J ] key</span> if the accents are the same.
    <u>Please press the key accordingly.</u>
    </p>",,,,,,,,,,,,sentence,,158,MJ,f,HINT,A fire truck is coming.,stimuli/FAS_J2M-HINT-07-06.wav,stimuli/FAS_M6M-HINT-07-06.wav
html-keyboard-response,324,618169,0.0-12.0-0.40,,,,,,null,null,"<h1 style= ""font-size: 50px"">+
    </h1>",,,,,,,,,,,,,,,,,,,,
html-keyboard-response,325,618680,0.0-12.0-1.40,,,,,,null,null,"
            <p style= ""white-space: nowrap;text-align: center; padding: 20px; background-color: lightgray;"">
            The content of this audio is _<strong>He played with his train.</strong>_ 
            </p>",,,,,,,,,,,,,,,,,,,,
audio-keyboard-response,326,620232,0.0-12.0-2.40,,,,,,null,null,stimuli/FAS_E5M-BKBR-01-08.wav,,,,,,,,,,,,,,,,,,,,
html-keyboard-response,327,620744,0.0-12.0-3.40,,,,,,null,null,"
        <p style= ""white-space: nowrap;text-align: center; padding: 20px; background-color: lightgray;"">
        The content of this audio is _<strong>He played with his train.</strong>_ 
        </p>",,,,,,,,,,,,,,,,,,,,
audio-keyboard-response,328,622211,0.0-12.0-4.40,,,,,,null,null,stimuli/FAS_E1M-BKBR-01-08.wav,,,,,,,,,,,,,,,,,,,,
html-keyboard-response,329,622315,0.0-12.0-5.40,,,,,,101,j,"
        <p style= ""white-space: nowrap;text-align: center; padding: 20px; background-color: lightgray;"">
        The content of the audio is_<strong>He played with his train.</strong>_ 
        </p>
    <p style=""width: 100%""> 
    Press <span style=""background-color: yellow;"">[ F ] key</span> if the accents are different. Press <span style=""background-color: yellow;"">[ J ] key</span> if the accents are the same.
    <u>Please press the key accordingly.</u>
    </p>",,,,,,,,,,,,sentence,,8,EE,j,BKB,He played with his train.,stimuli/FAS_E5M-BKBR-01-08.wav,stimuli/FAS_E1M-BKBR-01-08.wav
html-keyboard-response,330,623329,0.0-12.0-0.41,,,,,,null,null,"<h1 style= ""font-size: 50px"">+
    </h1>",,,,,,,,,,,,,,,,,,,,
html-keyboard-response,331,623849,0.0-12.0-1.41,,,,,,null,null,"
            <p style= ""white-space: nowrap;text-align: center; padding: 20px; background-color: lightgray;"">
            The content of this audio is _<strong>They ate the lemon pie.</strong>_ 
            </p>",,,,,,,,,,,,,,,,,,,,
audio-keyboard-response,332,625352,0.0-12.0-2.41,,,,,,null,null,stimuli/FAS_M1M-BKBR-03-11.wav,,,,,,,,,,,,,,,,,,,,
html-keyboard-response,333,625866,0.0-12.0-3.41,,,,,,null,null,"
        <p style= ""white-space: nowrap;text-align: center; padding: 20px; background-color: lightgray;"">
        The content of this audio is _<strong>They ate the lemon pie.</strong>_ 
        </p>",,,,,,,,,,,,,,,,,,,,
audio-keyboard-response,334,627432,0.0-12.0-4.41,,,,,,null,null,stimuli/FAS_M6M-BKBR-03-11.wav,,,,,,,,,,,,,,,,,,,,
html-keyboard-response,335,628553,0.0-12.0-5.41,,,,,,1118,j,"
        <p style= ""white-space: nowrap;text-align: center; padding: 20px; background-color: lightgray;"">
        The content of the audio is_<strong>They ate the lemon pie.</strong>_ 
        </p>
    <p style=""width: 100%""> 
    Press <span style=""background-color: yellow;"">[ F ] key</span> if the accents are different. Press <span style=""background-color: yellow;"">[ J ] key</span> if the accents are the same.
    <u>Please press the key accordingly.</u>
    </p>",,,,,,,,,,,,sentence,,43,MM,j,BKB,They ate the lemon pie.,stimuli/FAS_M1M-BKBR-03-11.wav,stimuli/FAS_M6M-BKBR-03-11.wav
html-keyboard-response,336,629558,0.0-12.0-0.42,,,,,,null,null,"<h1 style= ""font-size: 50px"">+
    </h1>",,,,,,,,,,,,,,,,,,,,
html-keyboard-response,337,630069,0.0-12.0-1.42,,,,,,null,null,"
            <p style= ""white-space: nowrap;text-align: center; padding: 20px; background-color: lightgray;"">
            The content of this audio is _<strong>The baby has blue eyes.</strong>_ 
            </p>",,,,,,,,,,,,,,,,,,,,
audio-keyboard-response,338,632190,0.0-12.0-2.42,,,,,,null,null,stimuli/FAS_M1M-HINT-06-10.wav,,,,,,,,,,,,,,,,,,,,
html-keyboard-response,339,632699,0.0-12.0-3.42,,,,,,null,null,"
        <p style= ""white-space: nowrap;text-align: center; padding: 20px; background-color: lightgray;"">
        The content of this audio is _<strong>The baby has blue eyes.</strong>_ 
        </p>",,,,,,,,,,,,,,,,,,,,
audio-keyboard-response,340,634752,0.0-12.0-4.42,,,,,,null,null,stimuli/FAS_J2M-HINT-06-10.wav,,,,,,,,,,,,,,,,,,,,
html-keyboard-response,341,635452,0.0-12.0-5.42,,,,,,697,f,"
        <p style= ""white-space: nowrap;text-align: center; padding: 20px; background-color: lightgray;"">
        The content of the audio is_<strong>The baby has blue eyes.</strong>_ 
        </p>
    <p style=""width: 100%""> 
    Press <span style=""background-color: yellow;"">[ F ] key</span> if the accents are different. Press <span style=""background-color: yellow;"">[ J ] key</span> if the accents are the same.
    <u>Please press the key accordingly.</u>
    </p>",,,,,,,,,,,,sentence,,152,MJ,f,HINT,The baby has blue eyes.,stimuli/FAS_M1M-HINT-06-10.wav,stimuli/FAS_J2M-HINT-06-10.wav
html-keyboard-response,342,636462,0.0-12.0-0.43,,,,,,null,null,"<h1 style= ""font-size: 50px"">+
    </h1>",,,,,,,,,,,,,,,,,,,,
html-keyboard-response,343,636980,0.0-12.0-1.43,,,,,,null,null,"
            <p style= ""white-space: nowrap;text-align: center; padding: 20px; background-color: lightgray;"">
            The content of this audio is _<strong>Mother got a saucepan.</strong>_ 
            </p>",,,,,,,,,,,,,,,,,,,,
audio-keyboard-response,344,638752,0.0-12.0-2.43,,,,,,null,null,stimuli/FAS_J1M-BKBR-07-06.wav,,,,,,,,,,,,,,,,,,,,
html-keyboard-response,345,639259,0.0-12.0-3.43,,,,,,null,null,"
        <p style= ""white-space: nowrap;text-align: center; padding: 20px; background-color: lightgray;"">
        The content of this audio is _<strong>Mother got a saucepan.</strong>_ 
        </p>",,,,,,,,,,,,,,,,,,,,
audio-keyboard-response,346,640772,0.0-12.0-4.43,,,,,,null,null,stimuli/FAS_K9M-BKBR-07-06.wav,,,,,,,,,,,,,,,,,,,,
html-keyboard-response,347,641046,0.0-12.0-5.43,,,,,,271,f,"
        <p style= ""white-space: nowrap;text-align: center; padding: 20px; background-color: lightgray;"">
        The content of the audio is_<strong>Mother got a saucepan.</strong>_ 
        </p>
    <p style=""width: 100%""> 
    Press <span style=""background-color: yellow;"">[ F ] key</span> if the accents are different. Press <span style=""background-color: yellow;"">[ J ] key</span> if the accents are the same.
    <u>Please press the key accordingly.</u>
    </p>",,,,,,,,,,,,sentence,,181,JK,f,BKB,Mother got a saucepan.,stimuli/FAS_J1M-BKBR-07-06.wav,stimuli/FAS_K9M-BKBR-07-06.wav
html-keyboard-response,348,642059,0.0-12.0-0.44,,,,,,null,null,"<h1 style= ""font-size: 50px"">+
    </h1>",,,,,,,,,,,,,,,,,,,,
html-keyboard-response,349,642571,0.0-12.0-1.44,,,,,,null,null,"
            <p style= ""white-space: nowrap;text-align: center; padding: 20px; background-color: lightgray;"">
            The content of this audio is _<strong>A tree fell on the house.</strong>_ 
            </p>",,,,,,,,,,,,,,,,,,,,
audio-keyboard-response,350,645252,0.0-12.0-2.44,,,,,,null,null,stimuli/FAS_K7M-HINT-05-07.wav,,,,,,,,,,,,,,,,,,,,
html-keyboard-response,351,645758,0.0-12.0-3.44,,,,,,null,null,"
        <p style= ""white-space: nowrap;text-align: center; padding: 20px; background-color: lightgray;"">
        The content of this audio is _<strong>A tree fell on the house.</strong>_ 
        </p>",,,,,,,,,,,,,,,,,,,,
audio-keyboard-response,352,647471,0.0-12.0-4.44,,,,,,null,null,stimuli/FAS_E5M-HINT-05-07.wav,,,,,,,,,,,,,,,,,,,,
html-keyboard-response,353,649027,0.0-12.0-5.44,,,,,,1553,j,"
        <p style= ""white-space: nowrap;text-align: center; padding: 20px; background-color: lightgray;"">
        The content of the audio is_<strong>A tree fell on the house.</strong>_ 
        </p>
    <p style=""width: 100%""> 
    Press <span style=""background-color: yellow;"">[ F ] key</span> if the accents are different. Press <span style=""background-color: yellow;"">[ J ] key</span> if the accents are the same.
    <u>Please press the key accordingly.</u>
    </p>",,,,,,,,,,,,sentence,,139,EK,f,HINT,A tree fell on the house.,stimuli/FAS_K7M-HINT-05-07.wav,stimuli/FAS_E5M-HINT-05-07.wav
html-keyboard-response,354,650037,0.0-12.0-0.45,,,,,,null,null,"<h1 style= ""font-size: 50px"">+
    </h1>",,,,,,,,,,,,,,,,,,,,
html-keyboard-response,355,650546,0.0-12.0-1.45,,,,,,null,null,"
            <p style= ""white-space: nowrap;text-align: center; padding: 20px; background-color: lightgray;"">
            The content of this audio is _<strong>The room is getting cold.</strong>_ 
            </p>",,,,,,,,,,,,,,,,,,,,
audio-keyboard-response,356,652292,0.0-12.0-2.45,,,,,,null,null,stimuli/FAS_M1M-BKBR-03-15.wav,,,,,,,,,,,,,,,,,,,,
html-keyboard-response,357,652804,0.0-12.0-3.45,,,,,,null,null,"
        <p style= ""white-space: nowrap;text-align: center; padding: 20px; background-color: lightgray;"">
        The content of this audio is _<strong>The room is getting cold.</strong>_ 
        </p>",,,,,,,,,,,,,,,,,,,,
audio-keyboard-response,358,654491,0.0-12.0-4.45,,,,,,null,null,stimuli/FAS_M6M-BKBR-03-15.wav,,,,,,,,,,,,,,,,,,,,
html-keyboard-response,359,656529,0.0-12.0-5.45,,,,,,2035,j,"
        <p style= ""white-space: nowrap;text-align: center; padding: 20px; background-color: lightgray;"">
        The content of the audio is_<strong>The room is getting cold.</strong>_ 
        </p>
    <p style=""width: 100%""> 
    Press <span style=""background-color: yellow;"">[ F ] key</span> if the accents are different. Press <span style=""background-color: yellow;"">[ J ] key</span> if the accents are the same.
    <u>Please press the key accordingly.</u>
    </p>",,,,,,,,,,,,sentence,,47,MM,j,BKB,The room is getting cold.,stimuli/FAS_M1M-BKBR-03-15.wav,stimuli/FAS_M6M-BKBR-03-15.wav
html-keyboard-response,360,657550,0.0-12.0-0.46,,,,,,null,null,"<h1 style= ""font-size: 50px"">+
    </h1>",,,,,,,,,,,,,,,,,,,,
html-keyboard-response,361,658056,0.0-12.0-1.46,,,,,,null,null,"
            <p style= ""white-space: nowrap;text-align: center; padding: 20px; background-color: lightgray;"">
            The content of this audio is _<strong>Flowers grow in the garden.</strong>_ 
            </p>",,,,,,,,,,,,,,,,,,,,
audio-keyboard-response,362,659932,0.0-12.0-2.46,,,,,,null,null,stimuli/FAS_M6M-HINT-02-02.wav,,,,,,,,,,,,,,,,,,,,
html-keyboard-response,363,660450,0.0-12.0-3.46,,,,,,null,null,"
        <p style= ""white-space: nowrap;text-align: center; padding: 20px; background-color: lightgray;"">
        The content of this audio is _<strong>Flowers grow in the garden.</strong>_ 
        </p>",,,,,,,,,,,,,,,,,,,,
audio-keyboard-response,364,662271,0.0-12.0-4.46,,,,,,null,null,stimuli/FAS_E1M-HINT-02-02.wav,,,,,,,,,,,,,,,,,,,,
html-keyboard-response,365,664322,0.0-12.0-5.46,,,,,,2048,j,"
        <p style= ""white-space: nowrap;text-align: center; padding: 20px; background-color: lightgray;"">
        The content of the audio is_<strong>Flowers grow in the garden.</strong>_ 
        </p>
    <p style=""width: 100%""> 
    Press <span style=""background-color: yellow;"">[ F ] key</span> if the accents are different. Press <span style=""background-color: yellow;"">[ J ] key</span> if the accents are the same.
    <u>Please press the key accordingly.</u>
    </p>",,,,,,,,,,,,sentence,,104,EM,f,HINT,Flowers grow in the garden.,stimuli/FAS_M6M-HINT-02-02.wav,stimuli/FAS_E1M-HINT-02-02.wav
html-keyboard-response,366,665338,0.0-12.0-0.47,,,,,,null,null,"<h1 style= ""font-size: 50px"">+
    </h1>",,,,,,,,,,,,,,,,,,,,
html-keyboard-response,367,665859,0.0-12.0-1.47,,,,,,null,null,"
