trial_type,trial_index,time_elapsed,internal_node_id,success,timeout,failed_images,failed_audio,failed_video,rt,response,stimulus,width,height,webaudio,browser,browser_version,mobile,os,fullscreen,vsync_rate,webcam,microphone,phase,deviceInfo,itemID,stimulus_type,correct_ans,list,content,sound1,sound2
pavlovia,0,5299,0.0-0.0,,,,,,,,,,,,,,,,,,,,,,,,,,,,
preload,1,29862,0.0-1.0,TRUE,FALSE,[],[],[],,,,,,,,,,,,,,,,,,,,,,,
survey-text,2,47136,0.0-2.0,,,,,,17240,"{""participant_name"":""Samanthah Ann"",""prolific_ID"":""67d0a404e7ea4ada87a0cd77""}",,,,,,,,,,,,,,,,,,,,,
html-button-response,3,53042,0.0-3.0-0.0,,,,,,5897,0,"
    <h1>
    Before starting the experiment, please adjust the volume.
    </h1>
    <p>
    Please press the ""Play"" button below and adjust the volume while checking until it reaches an appropriate level.
    </p>
    <audio id=""vol-test-stimulus"" src=""stimuli/word/FAS_E1M-LNTW-01-16.wav""></audio>
    <button id=""play-button"">Play</button>
    <p>
    You can play the audio as many times as you like until the volume suits your preference.
    Once you've adjusted the volume to a level that is the easiest to hear and most comfortable for you.
    Press the button below and enter what you heard on the next page.
    This is just to confirm that you can hear the audio clearly, so it's okay if you make a few mistakes.
    </p>
  ",,,,,,,,,,,,,,,,,,,,
survey-text,4,58395,0.0-3.0-1.0,,,,,,5325,"{""vol-word"":""Dance""}",,,,,,,,,,,,,,,,,,,,,
fullscreen,5,64360,0.0-4.0,TRUE,,,,,,,,,,,,,,,,,,,,,,,,,,,
browser-check,6,65361,0.0-5.0,,,,,,,,,1280,720,TRUE,chrome,133.0.0,FALSE,Windows 10,TRUE,60.7,TRUE,TRUE,,,,,,,,,
html-button-response,7,67368,0.0-6.0,,,,,,null,null,"
    <h1 style = ""font-size: 60px; width: 100%;"">English Pronunciation Perception Experiment</h1>
    ",,,,,,,,,,,,,,,,,,,,
html-button-response,8,76229,0.0-7.0,,,,,,8859,0,"
    <h1>
    Instructions: What will you do in this experiment?
    </h1>
    <p style=""width:100%"">
    In this experiment, two English audio clips will be played as a pair.

    The content of the audio will be displayed slightly earlier.

    While listening to the pair of audio clips and looking at the content,

    if the pair has different accents, press the <span style=""background-color: yellow;"">[ F ] key</span>, 

    if the pair has the same accent, press the <span style=""background-color: yellow;"">[ J ] key</span> 
    <u>as quickly and accurately as possible</u>

    This experiment will record the accuracy and speed of your judgments on whether the pronunciations are the same or different.
    </p>
    ",,,,,,,,,,,,,,,,,,,,
html-button-response,9,98008,0.0-8.0,,,,,,21777,0,"
    <h1>
    Instructions: What is an accented pronunciation?
    </h1>
    <p>
    Your understanding of the following content is crucial to the results of this experiment, so please read it carefully.

    In this experiment, ""accent"" does not refer to the variations in pronunciation among native speakers. Instead, it refers to the ""foreign accent"" of speakers whose native language is different from English. Although native speakers have many regional pronunciation variations, this study focuses on the differences between native and non-native English speakers, as well as differences among non-native speakers whose native languages differ.

    Therefore, a ""pair of English pronunciations with different accents"" refers to:

    - A pair consisting of a native speaker and a non-native speaker, or
    - A pair of non-native speakers whose native languages are different (e.g., Speaker A whose native language is Language A and Speaker B whose native language is Language B).

    If you understand the above explanation, click the button below to proceed to the instructions on the experiment's procedure.
    </p>
    ",,,,,,,,,,,,,,,,,,,,
html-button-response,10,101791,0.0-9.0,,,,,,3781,0,"
    <h1>
    Instructions: Explanation of the Experiment Procedure
    </h1>
    <p>
    The audio will always play immediately after the fixation point (+) is displayed, so please make sure to focus on the fixation point when it appears.

    This pronunciation perception experiment is expected to take approximately 50 minutes to complete.
    There will be one break point during the experiment.
    Feel free to take a break during this time (e.g., closing your eyes, taking deep breaths, etc.).

    To respond quickly, keep your fingers on the [ F ] and [ J ] keys at all times.
    To help you get familiar with the procedure, there are 12 practice questions prepared.
    When you are ready, click the button below to proceed to the practice session.
    </p>
    ",,,,,,,,,,,,intro,"{""userAgent"":""Mozilla/5.0 (Windows NT 10.0; Win64; x64) AppleWebKit/537.36 (KHTML, like Gecko) Chrome/133.0.0.0 Safari/537.36"",""platform"":""Win32"",""language"":""en-US"",""screenResolution"":""1280x720"",""windowSize"":""1280x632""}",,,,,,,
html-keyboard-response,11,102801,0.0-10.0-0.0,,,,,,null,null,"<h1 style= ""font-size: 50px"">+
    </h1>",,,,,,,,,,,,,,,,,,,,
html-keyboard-response,12,103307,0.0-10.0-1.0,,,,,,null,null,"
            <p style= ""white-space: nowrap;text-align: center; padding: 20px; background-color: lightgray;"">
            The content of this audio is _<strong>ball</strong>_ 
            </p>",,,,,,,,,,,,,,,,,,,,
audio-keyboard-response,13,103927,0.0-10.0-2.0,,,,,,null,null,stimuli/FAS_E1M-WIPI-01-02.wav,,,,,,,,,,,,,,,,,,,,
html-keyboard-response,14,104435,0.0-10.0-3.0,,,,,,null,null,"
        <p style= ""white-space: nowrap;text-align: center; padding: 20px; background-color: lightgray;"">
        The content of this audio is _<strong>ball</strong>_ 
        </p>",,,,,,,,,,,,,,,,,,,,
audio-keyboard-response,15,104959,0.0-10.0-4.0,,,,,,null,null,stimuli/FAS_E5M-WIPI-01-02.wav,,,,,,,,,,,,,,,,,,,,
html-keyboard-response,16,111563,0.0-10.0-5.0,,,,,,6602,j,"
        <p style= ""white-space: nowrap;text-align: center; padding: 20px; background-color: lightgray;"">
        The content of this audio is _<strong>ball</strong>_ 
        </p>
    <p style=""width: 100%""> 
    Press <span style=""background-color: yellow;"">[ F ] key</span> if the accents are different. Press <span style=""background-color: yellow;"">[ J ] key</span> if the accents are the same.
    <u>Please press the key accordingly.</u>
    </p>",,,,,,,,,,,,practice,,2,EE,j,WIPI,ball,stimuli/FAS_E1M-WIPI-01-02.wav,stimuli/FAS_E5M-WIPI-01-02.wav
html-keyboard-response,17,112572,0.0-10.0-0.1,,,,,,null,null,"<h1 style= ""font-size: 50px"">+
    </h1>",,,,,,,,,,,,,,,,,,,,
html-keyboard-response,18,113079,0.0-10.0-1.1,,,,,,null,null,"
            <p style= ""white-space: nowrap;text-align: center; padding: 20px; background-color: lightgray;"">
            The content of this audio is _<strong>The tomatoes grew in his garden.</strong>_ 
            </p>",,,,,,,,,,,,,,,,,,,,
audio-keyboard-response,19,115259,0.0-10.0-2.1,,,,,,null,null,stimuli/FAS_M6M-BKBR-00-03.wav,,,,,,,,,,,,,,,,,,,,
html-keyboard-response,20,115775,0.0-10.0-3.1,,,,,,null,null,"
        <p style= ""white-space: nowrap;text-align: center; padding: 20px; background-color: lightgray;"">
        The content of this audio is _<strong>The tomatoes grew in his garden.</strong>_ 
        </p>",,,,,,,,,,,,,,,,,,,,
audio-keyboard-response,21,118179,0.0-10.0-4.1,,,,,,null,null,stimuli/FAS_M1M-BKBR-00-03.wav,,,,,,,,,,,,,,,,,,,,
html-keyboard-response,22,119003,0.0-10.0-5.1,,,,,,823,j,"
        <p style= ""white-space: nowrap;text-align: center; padding: 20px; background-color: lightgray;"">
        The content of this audio is _<strong>The tomatoes grew in his garden.</strong>_ 
        </p>
    <p style=""width: 100%""> 
    Press <span style=""background-color: yellow;"">[ F ] key</span> if the accents are different. Press <span style=""background-color: yellow;"">[ J ] key</span> if the accents are the same.
    <u>Please press the key accordingly.</u>
    </p>",,,,,,,,,,,,practice,,9,MM,j,BKB,The tomatoes grew in his garden.,stimuli/FAS_M6M-BKBR-00-03.wav,stimuli/FAS_M1M-BKBR-00-03.wav
html-keyboard-response,23,120009,0.0-10.0-0.2,,,,,,null,null,"<h1 style= ""font-size: 50px"">+
    </h1>",,,,,,,,,,,,,,,,,,,,
html-keyboard-response,24,120526,0.0-10.0-1.2,,,,,,null,null,"
            <p style= ""white-space: nowrap;text-align: center; padding: 20px; background-color: lightgray;"">
            The content of this audio is _<strong>The boy got into trouble.</strong>_ 
            </p>",,,,,,,,,,,,,,,,,,,,
audio-keyboard-response,25,122099,0.0-10.0-2.2,,,,,,null,null,stimuli/FAS_E5M-HINT-P1-01.wav,,,,,,,,,,,,,,,,,,,,
html-keyboard-response,26,122602,0.0-10.0-3.2,,,,,,null,null,"
        <p style= ""white-space: nowrap;text-align: center; padding: 20px; background-color: lightgray;"">
        The content of this audio is _<strong>The boy got into trouble.</strong>_ 
        </p>",,,,,,,,,,,,,,,,,,,,
audio-keyboard-response,27,124479,0.0-10.0-4.2,,,,,,null,null,stimuli/FAS_M6M-HINT-P1-01.wav,,,,,,,,,,,,,,,,,,,,
html-keyboard-response,28,125062,0.0-10.0-5.2,,,,,,581,j,"
        <p style= ""white-space: nowrap;text-align: center; padding: 20px; background-color: lightgray;"">
        The content of this audio is _<strong>The boy got into trouble.</strong>_ 
        </p>
    <p style=""width: 100%""> 
    Press <span style=""background-color: yellow;"">[ F ] key</span> if the accents are different. Press <span style=""background-color: yellow;"">[ J ] key</span> if the accents are the same.
    <u>Please press the key accordingly.</u>
    </p>",,,,,,,,,,,,practice,,10,EM,f,HINT,The boy got into trouble.,stimuli/FAS_E5M-HINT-P1-01.wav,stimuli/FAS_M6M-HINT-P1-01.wav
html-keyboard-response,29,126076,0.0-10.0-0.3,,,,,,null,null,"<h1 style= ""font-size: 50px"">+
    </h1>",,,,,,,,,,,,,,,,,,,,
html-keyboard-response,30,126581,0.0-10.0-1.3,,,,,,null,null,"
            <p style= ""white-space: nowrap;text-align: center; padding: 20px; background-color: lightgray;"">
            The content of this audio is _<strong>school</strong>_ 
            </p>",,,,,,,,,,,,,,,,,,,,
audio-keyboard-response,31,127423,0.0-10.0-2.3,,,,,,null,null,stimuli/FAS_E5M-WIPI-01-01.wav,,,,,,,,,,,,,,,,,,,,
html-keyboard-response,32,127938,0.0-10.0-3.3,,,,,,null,null,"
        <p style= ""white-space: nowrap;text-align: center; padding: 20px; background-color: lightgray;"">
        The content of this audio is _<strong>school</strong>_ 
        </p>",,,,,,,,,,,,,,,,,,,,
audio-keyboard-response,33,128719,0.0-10.0-4.3,,,,,,null,null,stimuli/FAS_E1M-WIPI-01-01.wav,,,,,,,,,,,,,,,,,,,,
html-keyboard-response,34,129367,0.0-10.0-5.3,,,,,,647,j,"
        <p style= ""white-space: nowrap;text-align: center; padding: 20px; background-color: lightgray;"">
        The content of this audio is _<strong>school</strong>_ 
        </p>
    <p style=""width: 100%""> 
    Press <span style=""background-color: yellow;"">[ F ] key</span> if the accents are different. Press <span style=""background-color: yellow;"">[ J ] key</span> if the accents are the same.
    <u>Please press the key accordingly.</u>
    </p>",,,,,,,,,,,,practice,,1,EE,j,WIPI,school,stimuli/FAS_E5M-WIPI-01-01.wav,stimuli/FAS_E1M-WIPI-01-01.wav
html-keyboard-response,35,130386,0.0-10.0-0.4,,,,,,null,null,"<h1 style= ""font-size: 50px"">+
    </h1>",,,,,,,,,,,,,,,,,,,,
html-keyboard-response,36,130894,0.0-10.0-1.4,,,,,,null,null,"
            <p style= ""white-space: nowrap;text-align: center; padding: 20px; background-color: lightgray;"">
            The content of this audio is _<strong>floor</strong>_ 
            </p>",,,,,,,,,,,,,,,,,,,,
audio-keyboard-response,37,131599,0.0-10.0-2.4,,,,,,null,null,stimuli/FAS_E1M-WIPI-01-04.wav,,,,,,,,,,,,,,,,,,,,
html-keyboard-response,38,132113,0.0-10.0-3.4,,,,,,null,null,"
        <p style= ""white-space: nowrap;text-align: center; padding: 20px; background-color: lightgray;"">
        The content of this audio is _<strong>floor</strong>_ 
        </p>",,,,,,,,,,,,,,,,,,,,
audio-keyboard-response,39,132959,0.0-10.0-4.4,,,,,,null,null,stimuli/FAS_M6M-WIPI-01-04.wav,,,,,,,,,,,,,,,,,,,,
html-keyboard-response,40,133675,0.0-10.0-5.4,,,,,,714,j,"
        <p style= ""white-space: nowrap;text-align: center; padding: 20px; background-color: lightgray;"">
        The content of this audio is _<strong>floor</strong>_ 
        </p>
    <p style=""width: 100%""> 
    Press <span style=""background-color: yellow;"">[ F ] key</span> if the accents are different. Press <span style=""background-color: yellow;"">[ J ] key</span> if the accents are the same.
    <u>Please press the key accordingly.</u>
    </p>",,,,,,,,,,,,practice,,4,EM,f,WIPI,floor,stimuli/FAS_E1M-WIPI-01-04.wav,stimuli/FAS_M6M-WIPI-01-04.wav
html-keyboard-response,41,134685,0.0-10.0-0.5,,,,,,null,null,"<h1 style= ""font-size: 50px"">+
    </h1>",,,,,,,,,,,,,,,,,,,,
html-keyboard-response,42,135201,0.0-10.0-1.5,,,,,,null,null,"
            <p style= ""white-space: nowrap;text-align: center; padding: 20px; background-color: lightgray;"">
            The content of this audio is _<strong>The front yard is pretty.</strong>_ 
            </p>",,,,,,,,,,,,,,,,,,,,
audio-keyboard-response,43,136879,0.0-10.0-2.5,,,,,,null,null,stimuli/FAS_M6M-HINT-P1-03.wav,,,,,,,,,,,,,,,,,,,,
html-keyboard-response,44,137385,0.0-10.0-3.5,,,,,,null,null,"
        <p style= ""white-space: nowrap;text-align: center; padding: 20px; background-color: lightgray;"">
        The content of this audio is _<strong>The front yard is pretty.</strong>_ 
        </p>",,,,,,,,,,,,,,,,,,,,
audio-keyboard-response,45,138919,0.0-10.0-4.5,,,,,,null,null,stimuli/FAS_E5M-HINT-P1-03.wav,,,,,,,,,,,,,,,,,,,,
html-keyboard-response,46,139496,0.0-10.0-5.5,,,,,,576,j,"
        <p style= ""white-space: nowrap;text-align: center; padding: 20px; background-color: lightgray;"">
        The content of this audio is _<strong>The front yard is pretty.</strong>_ 
        </p>
    <p style=""width: 100%""> 
    Press <span style=""background-color: yellow;"">[ F ] key</span> if the accents are different. Press <span style=""background-color: yellow;"">[ J ] key</span> if the accents are the same.
    <u>Please press the key accordingly.</u>
    </p>",,,,,,,,,,,,practice,,12,EM,f,HINT,The front yard is pretty.,stimuli/FAS_M6M-HINT-P1-03.wav,stimuli/FAS_E5M-HINT-P1-03.wav
html-keyboard-response,47,140509,0.0-10.0-0.6,,,,,,null,null,"<h1 style= ""font-size: 50px"">+
    </h1>",,,,,,,,,,,,,,,,,,,,
html-keyboard-response,48,141025,0.0-10.0-1.6,,,,,,null,null,"
            <p style= ""white-space: nowrap;text-align: center; padding: 20px; background-color: lightgray;"">
            The content of this audio is _<strong>The yellow pears taste good.</strong>_ 
            </p>",,,,,,,,,,,,,,,,,,,,
audio-keyboard-response,49,142779,0.0-10.0-2.6,,,,,,null,null,stimuli/FAS_E5M-HINT-P1-02.wav,,,,,,,,,,,,,,,,,,,,
html-keyboard-response,50,143291,0.0-10.0-3.6,,,,,,null,null,"
        <p style= ""white-space: nowrap;text-align: center; padding: 20px; background-color: lightgray;"">
        The content of this audio is _<strong>The yellow pears taste good.</strong>_ 
        </p>",,,,,,,,,,,,,,,,,,,,
audio-keyboard-response,51,145259,0.0-10.0-4.6,,,,,,null,null,stimuli/FAS_M6M-HINT-P1-02.wav,,,,,,,,,,,,,,,,,,,,
html-keyboard-response,52,145662,0.0-10.0-5.6,,,,,,402,j,"
        <p style= ""white-space: nowrap;text-align: center; padding: 20px; background-color: lightgray;"">
        The content of this audio is _<strong>The yellow pears taste good.</strong>_ 
        </p>
    <p style=""width: 100%""> 
    Press <span style=""background-color: yellow;"">[ F ] key</span> if the accents are different. Press <span style=""background-color: yellow;"">[ J ] key</span> if the accents are the same.
    <u>Please press the key accordingly.</u>
    </p>",,,,,,,,,,,,practice,,11,EM,f,HINT,The yellow pears taste good.,stimuli/FAS_E5M-HINT-P1-02.wav,stimuli/FAS_M6M-HINT-P1-02.wav
html-keyboard-response,53,146672,0.0-10.0-0.7,,,,,,null,null,"<h1 style= ""font-size: 50px"">+
    </h1>",,,,,,,,,,,,,,,,,,,,
html-keyboard-response,54,147184,0.0-10.0-1.7,,,,,,null,null,"
            <p style= ""white-space: nowrap;text-align: center; padding: 20px; background-color: lightgray;"">
            The content of this audio is _<strong>It is time to go home.</strong>_ 
            </p>",,,,,,,,,,,,,,,,,,,,
audio-keyboard-response,55,148779,0.0-10.0-2.7,,,,,,null,null,stimuli/FAS_M6M-BKBR-00-02.wav,,,,,,,,,,,,,,,,,,,,
html-keyboard-response,56,149288,0.0-10.0-3.7,,,,,,null,null,"
        <p style= ""white-space: nowrap;text-align: center; padding: 20px; background-color: lightgray;"">
        The content of this audio is _<strong>It is time to go home.</strong>_ 
        </p>",,,,,,,,,,,,,,,,,,,,
audio-keyboard-response,57,150878,0.0-10.0-4.7,,,,,,null,null,stimuli/FAS_M1M-BKBR-00-02.wav,,,,,,,,,,,,,,,,,,,,
html-keyboard-response,58,151590,0.0-10.0-5.7,,,,,,711,j,"
        <p style= ""white-space: nowrap;text-align: center; padding: 20px; background-color: lightgray;"">
        The content of this audio is _<strong>It is time to go home.</strong>_ 
        </p>
    <p style=""width: 100%""> 
    Press <span style=""background-color: yellow;"">[ F ] key</span> if the accents are different. Press <span style=""background-color: yellow;"">[ J ] key</span> if the accents are the same.
    <u>Please press the key accordingly.</u>
    </p>",,,,,,,,,,,,practice,,8,MM,j,BKB,It is time to go home.,stimuli/FAS_M6M-BKBR-00-02.wav,stimuli/FAS_M1M-BKBR-00-02.wav
html-keyboard-response,59,152593,0.0-10.0-0.8,,,,,,null,null,"<h1 style= ""font-size: 50px"">+
    </h1>",,,,,,,,,,,,,,,,,,,,
html-keyboard-response,60,153096,0.0-10.0-1.8,,,,,,null,null,"
            <p style= ""white-space: nowrap;text-align: center; padding: 20px; background-color: lightgray;"">
            The content of this audio is _<strong>fox</strong>_ 
            </p>",,,,,,,,,,,,,,,,,,,,
audio-keyboard-response,61,153898,0.0-10.0-2.8,,,,,,null,null,stimuli/FAS_M6M-WIPI-01-05.wav,,,,,,,,,,,,,,,,,,,,
html-keyboard-response,62,154406,0.0-10.0-3.8,,,,,,null,null,"
        <p style= ""white-space: nowrap;text-align: center; padding: 20px; background-color: lightgray;"">
        The content of this audio is _<strong>fox</strong>_ 
        </p>",,,,,,,,,,,,,,,,,,,,
audio-keyboard-response,63,155119,0.0-10.0-4.8,,,,,,null,null,stimuli/FAS_E1M-WIPI-01-05.wav,,,,,,,,,,,,,,,,,,,,
html-keyboard-response,64,156205,0.0-10.0-5.8,,,,,,1084,f,"
        <p style= ""white-space: nowrap;text-align: center; padding: 20px; background-color: lightgray;"">
        The content of this audio is _<strong>fox</strong>_ 
        </p>
    <p style=""width: 100%""> 
    Press <span style=""background-color: yellow;"">[ F ] key</span> if the accents are different. Press <span style=""background-color: yellow;"">[ J ] key</span> if the accents are the same.
    <u>Please press the key accordingly.</u>
    </p>",,,,,,,,,,,,practice,,5,EM,f,WIPI,fox,stimuli/FAS_M6M-WIPI-01-05.wav,stimuli/FAS_E1M-WIPI-01-05.wav
html-keyboard-response,65,157222,0.0-10.0-0.9,,,,,,null,null,"<h1 style= ""font-size: 50px"">+
    </h1>",,,,,,,,,,,,,,,,,,,,
html-keyboard-response,66,157737,0.0-10.0-1.9,,,,,,null,null,"
            <p style= ""white-space: nowrap;text-align: center; padding: 20px; background-color: lightgray;"">
            The content of this audio is _<strong>They watched the movie.</strong>_ 
            </p>",,,,,,,,,,,,,,,,,,,,
audio-keyboard-response,67,159058,0.0-10.0-2.9,,,,,,null,null,stimuli/FAS_M1M-BKBR-00-01.wav,,,,,,,,,,,,,,,,,,,,
html-keyboard-response,68,159575,0.0-10.0-3.9,,,,,,null,null,"
        <p style= ""white-space: nowrap;text-align: center; padding: 20px; background-color: lightgray;"">
        The content of this audio is _<strong>They watched the movie.</strong>_ 
        </p>",,,,,,,,,,,,,,,,,,,,
audio-keyboard-response,69,161039,0.0-10.0-4.9,,,,,,null,null,stimuli/FAS_M6M-BKBR-00-01.wav,,,,,,,,,,,,,,,,,,,,
html-keyboard-response,70,164222,0.0-10.0-5.9,,,,,,3181,j,"
        <p style= ""white-space: nowrap;text-align: center; padding: 20px; background-color: lightgray;"">
        The content of this audio is _<strong>They watched the movie.</strong>_ 
        </p>
    <p style=""width: 100%""> 
    Press <span style=""background-color: yellow;"">[ F ] key</span> if the accents are different. Press <span style=""background-color: yellow;"">[ J ] key</span> if the accents are the same.
    <u>Please press the key accordingly.</u>
    </p>",,,,,,,,,,,,practice,,7,MM,j,BKB,They watched the movie.,stimuli/FAS_M1M-BKBR-00-01.wav,stimuli/FAS_M6M-BKBR-00-01.wav
html-keyboard-response,71,165235,0.0-10.0-0.10,,,,,,null,null,"<h1 style= ""font-size: 50px"">+
    </h1>",,,,,,,,,,,,,,,,,,,,
html-keyboard-response,72,165737,0.0-10.0-1.10,,,,,,null,null,"
            <p style= ""white-space: nowrap;text-align: center; padding: 20px; background-color: lightgray;"">
            The content of this audio is _<strong>hat</strong>_ 
            </p>",,,,,,,,,,,,,,,,,,,,
audio-keyboard-response,73,166319,0.0-10.0-2.10,,,,,,null,null,stimuli/FAS_E1M-WIPI-01-06.wav,,,,,,,,,,,,,,,,,,,,
html-keyboard-response,74,166834,0.0-10.0-3.10,,,,,,null,null,"
        <p style= ""white-space: nowrap;text-align: center; padding: 20px; background-color: lightgray;"">
        The content of this audio is _<strong>hat</strong>_ 
        </p>",,,,,,,,,,,,,,,,,,,,
audio-keyboard-response,75,167399,0.0-10.0-4.10,,,,,,null,null,stimuli/FAS_M6M-WIPI-01-06.wav,,,,,,,,,,,,,,,,,,,,
html-keyboard-response,76,168061,0.0-10.0-5.10,,,,,,660,f,"
        <p style= ""white-space: nowrap;text-align: center; padding: 20px; background-color: lightgray;"">
        The content of this audio is _<strong>hat</strong>_ 
        </p>
    <p style=""width: 100%""> 
    Press <span style=""background-color: yellow;"">[ F ] key</span> if the accents are different. Press <span style=""background-color: yellow;"">[ J ] key</span> if the accents are the same.
    <u>Please press the key accordingly.</u>
    </p>",,,,,,,,,,,,practice,,6,EM,f,WIPI,hat,stimuli/FAS_E1M-WIPI-01-06.wav,stimuli/FAS_M6M-WIPI-01-06.wav
html-keyboard-response,77,169063,0.0-10.0-0.11,,,,,,null,null,"<h1 style= ""font-size: 50px"">+
    </h1>",,,,,,,,,,,,,,,,,,,,
html-keyboard-response,78,169571,0.0-10.0-1.11,,,,,,null,null,"
            <p style= ""white-space: nowrap;text-align: center; padding: 20px; background-color: lightgray;"">
            The content of this audio is _<strong>smoke</strong>_ 
            </p>",,,,,,,,,,,,,,,,,,,,
audio-keyboard-response,79,170378,0.0-10.0-2.11,,,,,,null,null,stimuli/FAS_E1M-WIPI-01-03.wav,,,,,,,,,,,,,,,,,,,,
html-keyboard-response,80,170882,0.0-10.0-3.11,,,,,,null,null,"
        <p style= ""white-space: nowrap;text-align: center; padding: 20px; background-color: lightgray;"">
        The content of this audio is _<strong>smoke</strong>_ 
        </p>",,,,,,,,,,,,,,,,,,,,
audio-keyboard-response,81,171479,0.0-10.0-4.11,,,,,,null,null,stimuli/FAS_E5M-WIPI-01-03.wav,,,,,,,,,,,,,,,,,,,,
html-keyboard-response,82,172558,0.0-10.0-5.11,,,,,,1078,j,"
        <p style= ""white-space: nowrap;text-align: center; padding: 20px; background-color: lightgray;"">
        The content of this audio is _<strong>smoke</strong>_ 
        </p>
    <p style=""width: 100%""> 
    Press <span style=""background-color: yellow;"">[ F ] key</span> if the accents are different. Press <span style=""background-color: yellow;"">[ J ] key</span> if the accents are the same.
    <u>Please press the key accordingly.</u>
    </p>",,,,,,,,,,,,practice,,3,EE,j,WIPI,smoke,stimuli/FAS_E1M-WIPI-01-03.wav,stimuli/FAS_E5M-WIPI-01-03.wav
html-button-response,83,184070,0.0-11.0,,,,,,11510,0,"
    <h1 style = ""width:100%"">
    The practice session is now over.
    </h1>
    <p>
    If you have any questions at this point, please do not close this webpage and contact the researcher.

    If you have no questions regarding the experiment procedure, click the button below to start the experiment.
    </p>
    ",,,,,,,,,,,,,,,,,,,,
html-keyboard-response,84,185075,0.0-12.0-0.0,,,,,,null,null,"<h1 style= ""font-size: 50px"">+
    </h1>",,,,,,,,,,,,,,,,,,,,
html-keyboard-response,85,185576,0.0-12.0-1.0,,,,,,null,null,"
            <p style= ""white-space: nowrap;text-align: center; padding: 20px; background-color: lightgray;"">
            The content of this audio is _<strong>fair</strong>_ 
            </p>",,,,,,,,,,,,,,,,,,,,
audio-keyboard-response,86,186335,0.0-12.0-2.0,,,,,,null,null,stimuli/word/FAS_K7M-PBKW-02-37.wav,,,,,,,,,,,,,,,,,,,,
html-keyboard-response,87,186850,0.0-12.0-3.0,,,,,,null,null,"
        <p style= ""white-space: nowrap;text-align: center; padding: 20px; background-color: lightgray;"">
        The content of this audio is _<strong>fair</strong>_ 
        </p>",,,,,,,,,,,,,,,,,,,,
audio-keyboard-response,88,187676,0.0-12.0-4.0,,,,,,null,null,stimuli/word/FAS_K9M-PBKW-02-37.wav,,,,,,,,,,,,,,,,,,,,
html-keyboard-response,89,188359,0.0-12.0-5.0,,,,,,681,f,"
        <p style= ""white-space: nowrap;text-align: center; padding: 20px; background-color: lightgray;"">
        The content of audio is_<strong>fair</strong>_ 
        </p>
    <p style=""width: 100%""> 
    Press <span style=""background-color: yellow;"">[ F ] key</span> if the accents are different. Press <span style=""background-color: yellow;"">[ J ] key</span> if the accents are the same.
    <u>Please press the key accordingly.</u>
    </p>",,,,,,,,,,,,word,,87,KK,j,PBK,fair,stimuli/word/FAS_K7M-PBKW-02-37.wav,stimuli/word/FAS_K9M-PBKW-02-37.wav
html-keyboard-response,90,189365,0.0-12.0-0.1,,,,,,null,null,"<h1 style= ""font-size: 50px"">+
    </h1>",,,,,,,,,,,,,,,,,,,,
html-keyboard-response,91,189872,0.0-12.0-1.1,,,,,,null,null,"
            <p style= ""white-space: nowrap;text-align: center; padding: 20px; background-color: lightgray;"">
            The content of this audio is _<strong>sit</strong>_ 
            </p>",,,,,,,,,,,,,,,,,,,,
audio-keyboard-response,92,190575,0.0-12.0-2.1,,,,,,null,null,stimuli/word/FAS_M1M-LNTW-02-16.wav,,,,,,,,,,,,,,,,,,,,
html-keyboard-response,93,191080,0.0-12.0-3.1,,,,,,null,null,"
        <p style= ""white-space: nowrap;text-align: center; padding: 20px; background-color: lightgray;"">
        The content of this audio is _<strong>sit</strong>_ 
        </p>",,,,,,,,,,,,,,,,,,,,
audio-keyboard-response,94,191775,0.0-12.0-4.1,,,,,,null,null,stimuli/word/FAS_K9M-LNTW-02-16.wav,,,,,,,,,,,,,,,,,,,,
html-keyboard-response,95,193526,0.0-12.0-5.1,,,,,,1749,f,"
        <p style= ""white-space: nowrap;text-align: center; padding: 20px; background-color: lightgray;"">
        The content of audio is_<strong>sit</strong>_ 
        </p>
    <p style=""width: 100%""> 
    Press <span style=""background-color: yellow;"">[ F ] key</span> if the accents are different. Press <span style=""background-color: yellow;"">[ J ] key</span> if the accents are the same.
    <u>Please press the key accordingly.</u>
    </p>",,,,,,,,,,,,word,,166,MK,f,LNT,sit,stimuli/word/FAS_M1M-LNTW-02-16.wav,stimuli/word/FAS_K9M-LNTW-02-16.wav
html-keyboard-response,96,194530,0.0-12.0-0.2,,,,,,null,null,"<h1 style= ""font-size: 50px"">+
    </h1>",,,,,,,,,,,,,,,,,,,,
html-keyboard-response,97,195042,0.0-12.0-1.2,,,,,,null,null,"
            <p style= ""white-space: nowrap;text-align: center; padding: 20px; background-color: lightgray;"">
            The content of this audio is _<strong>old</strong>_ 
            </p>",,,,,,,,,,,,,,,,,,,,
audio-keyboard-response,98,195675,0.0-12.0-2.2,,,,,,null,null,stimuli/word/FAS_E5M-LNTW-01-12.wav,,,,,,,,,,,,,,,,,,,,
html-keyboard-response,99,196191,0.0-12.0-3.2,,,,,,null,null,"
        <p style= ""white-space: nowrap;text-align: center; padding: 20px; background-color: lightgray;"">
        The content of this audio is _<strong>old</strong>_ 
        </p>",,,,,,,,,,,,,,,,,,,,
audio-keyboard-response,100,196935,0.0-12.0-4.2,,,,,,null,null,stimuli/word/FAS_M6M-LNTW-01-12.wav,,,,,,,,,,,,,,,,,,,,
html-keyboard-response,101,197527,0.0-12.0-5.2,,,,,,591,j,"
        <p style= ""white-space: nowrap;text-align: center; padding: 20px; background-color: lightgray;"">
        The content of audio is_<strong>old</strong>_ 
        </p>
    <p style=""width: 100%""> 
    Press <span style=""background-color: yellow;"">[ F ] key</span> if the accents are different. Press <span style=""background-color: yellow;"">[ J ] key</span> if the accents are the same.
    <u>Please press the key accordingly.</u>
    </p>",,,,,,,,,,,,word,,112,EM,f,LNT,old,stimuli/word/FAS_E5M-LNTW-01-12.wav,stimuli/word/FAS_M6M-LNTW-01-12.wav
html-keyboard-response,102,198542,0.0-12.0-0.3,,,,,,null,null,"<h1 style= ""font-size: 50px"">+
    </h1>",,,,,,,,,,,,,,,,,,,,
html-keyboard-response,103,199053,0.0-12.0-1.3,,,,,,null,null,"
            <p style= ""white-space: nowrap;text-align: center; padding: 20px; background-color: lightgray;"">
            The content of this audio is _<strong>sing</strong>_ 
            </p>",,,,,,,,,,,,,,,,,,,,
audio-keyboard-response,104,199775,0.0-12.0-2.3,,,,,,null,null,stimuli/word/FAS_J1M-PBKW-02-21.wav,,,,,,,,,,,,,,,,,,,,
html-keyboard-response,105,200290,0.0-12.0-3.3,,,,,,null,null,"
        <p style= ""white-space: nowrap;text-align: center; padding: 20px; background-color: lightgray;"">
        The content of this audio is _<strong>sing</strong>_ 
        </p>",,,,,,,,,,,,,,,,,,,,
audio-keyboard-response,106,200895,0.0-12.0-4.3,,,,,,null,null,stimuli/word/FAS_J2M-PBKW-02-21.wav,,,,,,,,,,,,,,,,,,,,
html-keyboard-response,107,201443,0.0-12.0-5.3,,,,,,545,f,"
        <p style= ""white-space: nowrap;text-align: center; padding: 20px; background-color: lightgray;"">
        The content of audio is_<strong>sing</strong>_ 
        </p>
    <p style=""width: 100%""> 
    Press <span style=""background-color: yellow;"">[ F ] key</span> if the accents are different. Press <span style=""background-color: yellow;"">[ J ] key</span> if the accents are the same.
    <u>Please press the key accordingly.</u>
    </p>",,,,,,,,,,,,word,,71,JJ,j,PBK,sing,stimuli/word/FAS_J1M-PBKW-02-21.wav,stimuli/word/FAS_J2M-PBKW-02-21.wav
html-keyboard-response,108,202460,0.0-12.0-0.4,,,,,,null,null,"<h1 style= ""font-size: 50px"">+
    </h1>",,,,,,,,,,,,,,,,,,,,
html-keyboard-response,109,202974,0.0-12.0-1.4,,,,,,null,null,"
            <p style= ""white-space: nowrap;text-align: center; padding: 20px; background-color: lightgray;"">
            The content of this audio is _<strong>game</strong>_ 
            </p>",,,,,,,,,,,,,,,,,,,,
audio-keyboard-response,110,203614,0.0-12.0-2.4,,,,,,null,null,stimuli/word/FAS_J1M-LNTW-01-45.wav,,,,,,,,,,,,,,,,,,,,
html-keyboard-response,111,204121,0.0-12.0-3.4,,,,,,null,null,"
        <p style= ""white-space: nowrap;text-align: center; padding: 20px; background-color: lightgray;"">
        The content of this audio is _<strong>game</strong>_ 
        </p>",,,,,,,,,,,,,,,,,,,,
audio-keyboard-response,112,204675,0.0-12.0-4.4,,,,,,null,null,stimuli/word/FAS_M1M-LNTW-01-45.wav,,,,,,,,,,,,,,,,,,,,
html-keyboard-response,113,205484,0.0-12.0-5.4,,,,,,808,f,"
        <p style= ""white-space: nowrap;text-align: center; padding: 20px; background-color: lightgray;"">
        The content of audio is_<strong>game</strong>_ 
        </p>
    <p style=""width: 100%""> 
    Press <span style=""background-color: yellow;"">[ F ] key</span> if the accents are different. Press <span style=""background-color: yellow;"">[ J ] key</span> if the accents are the same.
    <u>Please press the key accordingly.</u>
    </p>",,,,,,,,,,,,word,,145,MJ,f,LNT,game,stimuli/word/FAS_J1M-LNTW-01-45.wav,stimuli/word/FAS_M1M-LNTW-01-45.wav
html-keyboard-response,114,206492,0.0-12.0-0.5,,,,,,null,null,"<h1 style= ""font-size: 50px"">+
    </h1>",,,,,,,,,,,,,,,,,,,,
html-keyboard-response,115,207001,0.0-12.0-1.5,,,,,,null,null,"
            <p style= ""white-space: nowrap;text-align: center; padding: 20px; background-color: lightgray;"">
            The content of this audio is _<strong>good</strong>_ 
            </p>",,,,,,,,,,,,,,,,,,,,
audio-keyboard-response,116,207675,0.0-12.0-2.5,,,,,,null,null,stimuli/word/FAS_M6M-LNTW-01-02.wav,,,,,,,,,,,,,,,,,,,,
html-keyboard-response,117,208184,0.0-12.0-3.5,,,,,,null,null,"
        <p style= ""white-space: nowrap;text-align: center; padding: 20px; background-color: lightgray;"">
        The content of this audio is _<strong>good</strong>_ 
        </p>",,,,,,,,,,,,,,,,,,,,
audio-keyboard-response,118,208895,0.0-12.0-4.5,,,,,,null,null,stimuli/word/FAS_E1M-LNTW-01-02.wav,,,,,,,,,,,,,,,,,,,,
html-keyboard-response,119,209319,0.0-12.0-5.5,,,,,,422,j,"
        <p style= ""white-space: nowrap;text-align: center; padding: 20px; background-color: lightgray;"">
        The content of audio is_<strong>good</strong>_ 
        </p>
    <p style=""width: 100%""> 
    Press <span style=""background-color: yellow;"">[ F ] key</span> if the accents are different. Press <span style=""background-color: yellow;"">[ J ] key</span> if the accents are the same.
    <u>Please press the key accordingly.</u>
    </p>",,,,,,,,,,,,word,,102,EM,f,LNT,good,stimuli/word/FAS_M6M-LNTW-01-02.wav,stimuli/word/FAS_E1M-LNTW-01-02.wav
html-keyboard-response,120,210322,0.0-12.0-0.6,,,,,,null,null,"<h1 style= ""font-size: 50px"">+
    </h1>",,,,,,,,,,,,,,,,,,,,
html-keyboard-response,121,210828,0.0-12.0-1.6,,,,,,null,null,"
            <p style= ""white-space: nowrap;text-align: center; padding: 20px; background-color: lightgray;"">
            The content of this audio is _<strong>end</strong>_ 
            </p>",,,,,,,,,,,,,,,,,,,,
audio-keyboard-response,122,211435,0.0-12.0-2.6,,,,,,null,null,stimuli/word/FAS_M1M-PBKW-01-30.wav,,,,,,,,,,,,,,,,,,,,
html-keyboard-response,123,211948,0.0-12.0-3.6,,,,,,null,null,"
        <p style= ""white-space: nowrap;text-align: center; padding: 20px; background-color: lightgray;"">
        The content of this audio is _<strong>end</strong>_ 
        </p>",,,,,,,,,,,,,,,,,,,,
audio-keyboard-response,124,212716,0.0-12.0-4.6,,,,,,null,null,stimuli/word/FAS_M6M-PBKW-01-30.wav,,,,,,,,,,,,,,,,,,,,
html-keyboard-response,125,213046,0.0-12.0-5.6,,,,,,329,f,"
        <p style= ""white-space: nowrap;text-align: center; padding: 20px; background-color: lightgray;"">
        The content of audio is_<strong>end</strong>_ 
        </p>
    <p style=""width: 100%""> 
    Press <span style=""background-color: yellow;"">[ F ] key</span> if the accents are different. Press <span style=""background-color: yellow;"">[ J ] key</span> if the accents are the same.
    <u>Please press the key accordingly.</u>
    </p>",,,,,,,,,,,,word,,30,MM,j,PBK,end,stimuli/word/FAS_M1M-PBKW-01-30.wav,stimuli/word/FAS_M6M-PBKW-01-30.wav
html-keyboard-response,126,214062,0.0-12.0-0.7,,,,,,null,null,"<h1 style= ""font-size: 50px"">+
    </h1>",,,,,,,,,,,,,,,,,,,,
html-keyboard-response,127,214568,0.0-12.0-1.7,,,,,,null,null,"
            <p style= ""white-space: nowrap;text-align: center; padding: 20px; background-color: lightgray;"">
            The content of this audio is _<strong>gum</strong>_ 
            </p>",,,,,,,,,,,,,,,,,,,,
audio-keyboard-response,128,215195,0.0-12.0-2.7,,,,,,null,null,stimuli/word/FAS_M1M-LNTW-01-48.wav,,,,,,,,,,,,,,,,,,,,
html-keyboard-response,129,215702,0.0-12.0-3.7,,,,,,null,null,"
        <p style= ""white-space: nowrap;text-align: center; padding: 20px; background-color: lightgray;"">
        The content of this audio is _<strong>gum</strong>_ 
        </p>",,,,,,,,,,,,,,,,,,,,
audio-keyboard-response,130,216284,0.0-12.0-4.7,,,,,,null,null,stimuli/word/FAS_J1M-LNTW-01-48.wav,,,,,,,,,,,,,,,,,,,,
html-keyboard-response,131,216906,0.0-12.0-5.7,,,,,,620,f,"
        <p style= ""white-space: nowrap;text-align: center; padding: 20px; background-color: lightgray;"">
        The content of audio is_<strong>gum</strong>_ 
        </p>
    <p style=""width: 100%""> 
    Press <span style=""background-color: yellow;"">[ F ] key</span> if the accents are different. Press <span style=""background-color: yellow;"">[ J ] key</span> if the accents are the same.
    <u>Please press the key accordingly.</u>
    </p>",,,,,,,,,,,,word,,148,MJ,f,LNT,gum,stimuli/word/FAS_M1M-LNTW-01-48.wav,stimuli/word/FAS_J1M-LNTW-01-48.wav
html-keyboard-response,132,217919,0.0-12.0-0.8,,,,,,null,null,"<h1 style= ""font-size: 50px"">+
    </h1>",,,,,,,,,,,,,,,,,,,,
html-keyboard-response,133,218427,0.0-12.0-1.8,,,,,,null,null,"
            <p style= ""white-space: nowrap;text-align: center; padding: 20px; background-color: lightgray;"">
            The content of this audio is _<strong>call</strong>_ 
            </p>",,,,,,,,,,,,,,,,,,,,
audio-keyboard-response,134,219104,0.0-12.0-2.8,,,,,,null,null,stimuli/word/FAS_J1M-LNTW-02-32.wav,,,,,,,,,,,,,,,,,,,,
html-keyboard-response,135,219622,0.0-12.0-3.8,,,,,,null,null,"
        <p style= ""white-space: nowrap;text-align: center; padding: 20px; background-color: lightgray;"">
        The content of this audio is _<strong>call</strong>_ 
        </p>",,,,,,,,,,,,,,,,,,,,
audio-keyboard-response,136,220304,0.0-12.0-4.8,,,,,,null,null,stimuli/word/FAS_K9M-LNTW-02-32.wav,,,,,,,,,,,,,,,,,,,,
html-keyboard-response,137,222137,0.0-12.0-5.8,,,,,,1832,f,"
        <p style= ""white-space: nowrap;text-align: center; padding: 20px; background-color: lightgray;"">
        The content of audio is_<strong>call</strong>_ 
        </p>
    <p style=""width: 100%""> 
    Press <span style=""background-color: yellow;"">[ F ] key</span> if the accents are different. Press <span style=""background-color: yellow;"">[ J ] key</span> if the accents are the same.
    <u>Please press the key accordingly.</u>
    </p>",,,,,,,,,,,,word,,182,JK,f,LNT,call,stimuli/word/FAS_J1M-LNTW-02-32.wav,stimuli/word/FAS_K9M-LNTW-02-32.wav
html-keyboard-response,138,223141,0.0-12.0-0.9,,,,,,null,null,"<h1 style= ""font-size: 50px"">+
    </h1>",,,,,,,,,,,,,,,,,,,,
html-keyboard-response,139,223644,0.0-12.0-1.9,,,,,,null,null,"
            <p style= ""white-space: nowrap;text-align: center; padding: 20px; background-color: lightgray;"">
            The content of this audio is _<strong>sled</strong>_ 
            </p>",,,,,,,,,,,,,,,,,,,,
audio-keyboard-response,140,224544,0.0-12.0-2.9,,,,,,null,null,stimuli/word/FAS_E1M-PBKW-01-03.wav,,,,,,,,,,,,,,,,,,,,
html-keyboard-response,141,225057,0.0-12.0-3.9,,,,,,null,null,"
        <p style= ""white-space: nowrap;text-align: center; padding: 20px; background-color: lightgray;"">
        The content of this audio is _<strong>sled</strong>_ 
        </p>",,,,,,,,,,,,,,,,,,,,
audio-keyboard-response,142,225724,0.0-12.0-4.9,,,,,,null,null,stimuli/word/FAS_E5M-PBKW-01-03.wav,,,,,,,,,,,,,,,,,,,,
html-keyboard-response,143,226307,0.0-12.0-5.9,,,,,,581,j,"
        <p style= ""white-space: nowrap;text-align: center; padding: 20px; background-color: lightgray;"">
        The content of audio is_<strong>sled</strong>_ 
        </p>
    <p style=""width: 100%""> 
    Press <span style=""background-color: yellow;"">[ F ] key</span> if the accents are different. Press <span style=""background-color: yellow;"">[ J ] key</span> if the accents are the same.
    <u>Please press the key accordingly.</u>
    </p>",,,,,,,,,,,,word,,3,EE,j,PBK,sled,stimuli/word/FAS_E1M-PBKW-01-03.wav,stimuli/word/FAS_E5M-PBKW-01-03.wav
html-keyboard-response,144,227312,0.0-12.0-0.10,,,,,,null,null,"<h1 style= ""font-size: 50px"">+
    </h1>",,,,,,,,,,,,,,,,,,,,
html-keyboard-response,145,227821,0.0-12.0-1.10,,,,,,null,null,"
            <p style= ""white-space: nowrap;text-align: center; padding: 20px; background-color: lightgray;"">
            The content of this audio is _<strong>scab</strong>_ 
            </p>",,,,,,,,,,,,,,,,,,,,
audio-keyboard-response,146,228544,0.0-12.0-2.10,,,,,,null,null,stimuli/word/FAS_M6M-PBKW-01-35.wav,,,,,,,,,,,,,,,,,,,,
html-keyboard-response,147,229048,0.0-12.0-3.10,,,,,,null,null,"
        <p style= ""white-space: nowrap;text-align: center; padding: 20px; background-color: lightgray;"">
        The content of this audio is _<strong>scab</strong>_ 
        </p>",,,,,,,,,,,,,,,,,,,,
audio-keyboard-response,148,229825,0.0-12.0-4.10,,,,,,null,null,stimuli/word/FAS_M1M-PBKW-01-35.wav,,,,,,,,,,,,,,,,,,,,
html-keyboard-response,149,231988,0.0-12.0-5.10,,,,,,2162,j,"
        <p style= ""white-space: nowrap;text-align: center; padding: 20px; background-color: lightgray;"">
        The content of audio is_<strong>scab</strong>_ 
        </p>
    <p style=""width: 100%""> 
    Press <span style=""background-color: yellow;"">[ F ] key</span> if the accents are different. Press <span style=""background-color: yellow;"">[ J ] key</span> if the accents are the same.
    <u>Please press the key accordingly.</u>
    </p>",,,,,,,,,,,,word,,35,MM,j,PBK,scab,stimuli/word/FAS_M6M-PBKW-01-35.wav,stimuli/word/FAS_M1M-PBKW-01-35.wav
html-keyboard-response,150,232997,0.0-12.0-0.11,,,,,,null,null,"<h1 style= ""font-size: 50px"">+
    </h1>",,,,,,,,,,,,,,,,,,,,
html-keyboard-response,151,233507,0.0-12.0-1.11,,,,,,null,null,"
            <p style= ""white-space: nowrap;text-align: center; padding: 20px; background-color: lightgray;"">
            The content of this audio is _<strong>shop</strong>_ 
            </p>",,,,,,,,,,,,,,,,,,,,
audio-keyboard-response,152,234124,0.0-12.0-2.11,,,,,,null,null,stimuli/word/FAS_J2M-PBKW-01-50.wav,,,,,,,,,,,,,,,,,,,,
html-keyboard-response,153,234639,0.0-12.0-3.11,,,,,,null,null,"
        <p style= ""white-space: nowrap;text-align: center; padding: 20px; background-color: lightgray;"">
        The content of this audio is _<strong>shop</strong>_ 
        </p>",,,,,,,,,,,,,,,,,,,,
audio-keyboard-response,154,235065,0.0-12.0-4.11,,,,,,null,null,stimuli/word/FAS_J1M-PBKW-01-50.wav,,,,,,,,,,,,,,,,,,,,
html-keyboard-response,155,236735,0.0-12.0-5.11,,,,,,1669,j,"
        <p style= ""white-space: nowrap;text-align: center; padding: 20px; background-color: lightgray;"">
        The content of audio is_<strong>shop</strong>_ 
        </p>
    <p style=""width: 100%""> 
    Press <span style=""background-color: yellow;"">[ F ] key</span> if the accents are different. Press <span style=""background-color: yellow;"">[ J ] key</span> if the accents are the same.
    <u>Please press the key accordingly.</u>
    </p>",,,,,,,,,,,,word,,50,JJ,j,PBK,shop,stimuli/word/FAS_J2M-PBKW-01-50.wav,stimuli/word/FAS_J1M-PBKW-01-50.wav
html-keyboard-response,156,237745,0.0-12.0-0.12,,,,,,null,null,"<h1 style= ""font-size: 50px"">+
    </h1>",,,,,,,,,,,,,,,,,,,,
html-keyboard-response,157,238259,0.0-12.0-1.12,,,,,,null,null,"
            <p style= ""white-space: nowrap;text-align: center; padding: 20px; background-color: lightgray;"">
            The content of this audio is _<strong>slip</strong>_ 
            </p>",,,,,,,,,,,,,,,,,,,,
audio-keyboard-response,158,238984,0.0-12.0-2.12,,,,,,null,null,stimuli/word/FAS_M1M-PBKW-01-28.wav,,,,,,,,,,,,,,,,,,,,
html-keyboard-response,159,239500,0.0-12.0-3.12,,,,,,null,null,"
        <p style= ""white-space: nowrap;text-align: center; padding: 20px; background-color: lightgray;"">
        The content of this audio is _<strong>slip</strong>_ 
        </p>",,,,,,,,,,,,,,,,,,,,
audio-keyboard-response,160,240304,0.0-12.0-4.12,,,,,,null,null,stimuli/word/FAS_M6M-PBKW-01-28.wav,,,,,,,,,,,,,,,,,,,,
html-keyboard-response,161,242286,0.0-12.0-5.12,,,,,,1981,j,"
        <p style= ""white-space: nowrap;text-align: center; padding: 20px; background-color: lightgray;"">
        The content of audio is_<strong>slip</strong>_ 
        </p>
    <p style=""width: 100%""> 
    Press <span style=""background-color: yellow;"">[ F ] key</span> if the accents are different. Press <span style=""background-color: yellow;"">[ J ] key</span> if the accents are the same.
    <u>Please press the key accordingly.</u>
    </p>",,,,,,,,,,,,word,,28,MM,j,PBK,slip,stimuli/word/FAS_M1M-PBKW-01-28.wav,stimuli/word/FAS_M6M-PBKW-01-28.wav
html-keyboard-response,162,243295,0.0-12.0-0.13,,,,,,null,null,"<h1 style= ""font-size: 50px"">+
    </h1>",,,,,,,,,,,,,,,,,,,,
html-keyboard-response,163,243807,0.0-12.0-1.13,,,,,,null,null,"
            <p style= ""white-space: nowrap;text-align: center; padding: 20px; background-color: lightgray;"">
            The content of this audio is _<strong>pinch</strong>_ 
            </p>",,,,,,,,,,,,,,,,,,,,
audio-keyboard-response,164,244624,0.0-12.0-2.13,,,,,,null,null,stimuli/word/FAS_E1M-PBKW-01-07.wav,,,,,,,,,,,,,,,,,,,,
html-keyboard-response,165,245134,0.0-12.0-3.13,,,,,,null,null,"
        <p style= ""white-space: nowrap;text-align: center; padding: 20px; background-color: lightgray;"">
        The content of this audio is _<strong>pinch</strong>_ 
        </p>",,,,,,,,,,,,,,,,,,,,
audio-keyboard-response,166,245704,0.0-12.0-4.13,,,,,,null,null,stimuli/word/FAS_E5M-PBKW-01-07.wav,,,,,,,,,,,,,,,,,,,,
html-keyboard-response,167,246256,0.0-12.0-5.13,,,,,,551,j,"
        <p style= ""white-space: nowrap;text-align: center; padding: 20px; background-color: lightgray;"">
        The content of audio is_<strong>pinch</strong>_ 
        </p>
    <p style=""width: 100%""> 
    Press <span style=""background-color: yellow;"">[ F ] key</span> if the accents are different. Press <span style=""background-color: yellow;"">[ J ] key</span> if the accents are the same.
    <u>Please press the key accordingly.</u>
    </p>",,,,,,,,,,,,word,,7,EE,j,PBK,pinch,stimuli/word/FAS_E1M-PBKW-01-07.wav,stimuli/word/FAS_E5M-PBKW-01-07.wav
html-keyboard-response,168,247258,0.0-12.0-0.14,,,,,,null,null,"<h1 style= ""font-size: 50px"">+
    </h1>",,,,,,,,,,,,,,,,,,,,
html-keyboard-response,169,247763,0.0-12.0-1.14,,,,,,null,null,"
            <p style= ""white-space: nowrap;text-align: center; padding: 20px; background-color: lightgray;"">
            The content of this audio is _<strong>darn</strong>_ 
            </p>",,,,,,,,,,,,,,,,,,,,
audio-keyboard-response,170,248445,0.0-12.0-2.14,,,,,,null,null,stimuli/word/FAS_K9M-PBKW-02-36.wav,,,,,,,,,,,,,,,,,,,,
html-keyboard-response,171,248948,0.0-12.0-3.14,,,,,,null,null,"
        <p style= ""white-space: nowrap;text-align: center; padding: 20px; background-color: lightgray;"">
        The content of this audio is _<strong>darn</strong>_ 
        </p>",,,,,,,,,,,,,,,,,,,,
audio-keyboard-response,172,249725,0.0-12.0-4.14,,,,,,null,null,stimuli/word/FAS_K7M-PBKW-02-36.wav,,,,,,,,,,,,,,,,,,,,
html-keyboard-response,173,250155,0.0-12.0-5.14,,,,,,429,f,"
        <p style= ""white-space: nowrap;text-align: center; padding: 20px; background-color: lightgray;"">
        The content of audio is_<strong>darn</strong>_ 
        </p>
    <p style=""width: 100%""> 
    Press <span style=""background-color: yellow;"">[ F ] key</span> if the accents are different. Press <span style=""background-color: yellow;"">[ J ] key</span> if the accents are the same.
    <u>Please press the key accordingly.</u>
    </p>",,,,,,,,,,,,word,,86,KK,j,PBK,darn,stimuli/word/FAS_K9M-PBKW-02-36.wav,stimuli/word/FAS_K7M-PBKW-02-36.wav
html-keyboard-response,174,251168,0.0-12.0-0.15,,,,,,null,null,"<h1 style= ""font-size: 50px"">+
    </h1>",,,,,,,,,,,,,,,,,,,,
html-keyboard-response,175,251676,0.0-12.0-1.15,,,,,,null,null,"
            <p style= ""white-space: nowrap;text-align: center; padding: 20px; background-color: lightgray;"">
            The content of this audio is _<strong>plow</strong>_ 
            </p>",,,,,,,,,,,,,,,,,,,,
audio-keyboard-response,176,252264,0.0-12.0-2.15,,,,,,null,null,stimuli/word/FAS_J2M-PBKW-02-04.wav,,,,,,,,,,,,,,,,,,,,
html-keyboard-response,177,252769,0.0-12.0-3.15,,,,,,null,null,"
        <p style= ""white-space: nowrap;text-align: center; padding: 20px; background-color: lightgray;"">
        The content of this audio is _<strong>plow</strong>_ 
        </p>",,,,,,,,,,,,,,,,,,,,
audio-keyboard-response,178,253363,0.0-12.0-4.15,,,,,,null,null,stimuli/word/FAS_J1M-PBKW-02-04.wav,,,,,,,,,,,,,,,,,,,,
html-keyboard-response,179,253925,0.0-12.0-5.15,,,,,,561,f,"
        <p style= ""white-space: nowrap;text-align: center; padding: 20px; background-color: lightgray;"">
        The content of audio is_<strong>plow</strong>_ 
        </p>
    <p style=""width: 100%""> 
    Press <span style=""background-color: yellow;"">[ F ] key</span> if the accents are different. Press <span style=""background-color: yellow;"">[ J ] key</span> if the accents are the same.
    <u>Please press the key accordingly.</u>
    </p>",,,,,,,,,,,,word,,54,JJ,j,PBK,plow,stimuli/word/FAS_J2M-PBKW-02-04.wav,stimuli/word/FAS_J1M-PBKW-02-04.wav
html-keyboard-response,180,254936,0.0-12.0-0.16,,,,,,null,null,"<h1 style= ""font-size: 50px"">+
    </h1>",,,,,,,,,,,,,,,,,,,,
html-keyboard-response,181,255448,0.0-12.0-1.16,,,,,,null,null,"
            <p style= ""white-space: nowrap;text-align: center; padding: 20px; background-color: lightgray;"">
            The content of this audio is _<strong>quick</strong>_ 
            </p>",,,,,,,,,,,,,,,,,,,,
audio-keyboard-response,182,256084,0.0-12.0-2.16,,,,,,null,null,stimuli/word/FAS_J2M-PBKW-03-04.wav,,,,,,,,,,,,,,,,,,,,
html-keyboard-response,183,256593,0.0-12.0-3.16,,,,,,null,null,"
        <p style= ""white-space: nowrap;text-align: center; padding: 20px; background-color: lightgray;"">
        The content of this audio is _<strong>quick</strong>_ 
        </p>",,,,,,,,,,,,,,,,,,,,
audio-keyboard-response,184,257224,0.0-12.0-4.16,,,,,,null,null,stimuli/word/FAS_K9M-PBKW-03-04.wav,,,,,,,,,,,,,,,,,,,,
html-keyboard-response,185,257631,0.0-12.0-5.16,,,,,,406,j,"
        <p style= ""white-space: nowrap;text-align: center; padding: 20px; background-color: lightgray;"">
        The content of audio is_<strong>quick</strong>_ 
        </p>
    <p style=""width: 100%""> 
    Press <span style=""background-color: yellow;"">[ F ] key</span> if the accents are different. Press <span style=""background-color: yellow;"">[ J ] key</span> if the accents are the same.
    <u>Please press the key accordingly.</u>
    </p>",,,,,,,,,,,,word,,190,JK,f,PBK,quick,stimuli/word/FAS_J2M-PBKW-03-04.wav,stimuli/word/FAS_K9M-PBKW-03-04.wav
html-keyboard-response,186,258640,0.0-12.0-0.17,,,,,,null,null,"<h1 style= ""font-size: 50px"">+
    </h1>",,,,,,,,,,,,,,,,,,,,
html-keyboard-response,187,259143,0.0-12.0-1.17,,,,,,null,null,"
            <p style= ""white-space: nowrap;text-align: center; padding: 20px; background-color: lightgray;"">
            The content of this audio is _<strong>farm</strong>_ 
            </p>",,,,,,,,,,,,,,,,,,,,
audio-keyboard-response,188,259784,0.0-12.0-2.17,,,,,,null,null,stimuli/word/FAS_J2M-LNTW-02-10.wav,,,,,,,,,,,,,,,,,,,,
html-keyboard-response,189,260287,0.0-12.0-3.17,,,,,,null,null,"
        <p style= ""white-space: nowrap;text-align: center; padding: 20px; background-color: lightgray;"">
        The content of this audio is _<strong>farm</strong>_ 
        </p>",,,,,,,,,,,,,,,,,,,,
audio-keyboard-response,190,261089,0.0-12.0-4.17,,,,,,null,null,stimuli/word/FAS_M6M-LNTW-02-10.wav,,,,,,,,,,,,,,,,,,,,
html-keyboard-response,191,261618,0.0-12.0-5.17,,,,,,527,j,"
        <p style= ""white-space: nowrap;text-align: center; padding: 20px; background-color: lightgray;"">
        The content of audio is_<strong>farm</strong>_ 
        </p>
    <p style=""width: 100%""> 
    Press <span style=""background-color: yellow;"">[ F ] key</span> if the accents are different. Press <span style=""background-color: yellow;"">[ J ] key</span> if the accents are the same.
    <u>Please press the key accordingly.</u>
    </p>",,,,,,,,,,,,word,,160,MJ,f,LNT,farm,stimuli/word/FAS_J2M-LNTW-02-10.wav,stimuli/word/FAS_M6M-LNTW-02-10.wav
html-keyboard-response,192,262622,0.0-12.0-0.18,,,,,,null,null,"<h1 style= ""font-size: 50px"">+
    </h1>",,,,,,,,,,,,,,,,,,,,
html-keyboard-response,193,263131,0.0-12.0-1.18,,,,,,null,null,"
            <p style= ""white-space: nowrap;text-align: center; padding: 20px; background-color: lightgray;"">
            The content of this audio is _<strong>crab</strong>_ 
            </p>",,,,,,,,,,,,,,,,,,,,
audio-keyboard-response,194,263829,0.0-12.0-2.18,,,,,,null,null,stimuli/word/FAS_K7M-PBKW-02-31.wav,,,,,,,,,,,,,,,,,,,,
html-keyboard-response,195,264344,0.0-12.0-3.18,,,,,,null,null,"
        <p style= ""white-space: nowrap;text-align: center; padding: 20px; background-color: lightgray;"">
        The content of this audio is _<strong>crab</strong>_ 
        </p>",,,,,,,,,,,,,,,,,,,,
audio-keyboard-response,196,264849,0.0-12.0-4.18,,,,,,null,null,stimuli/word/FAS_K9M-PBKW-02-31.wav,,,,,,,,,,,,,,,,,,,,
html-keyboard-response,197,265351,0.0-12.0-5.18,,,,,,500,f,"
        <p style= ""white-space: nowrap;text-align: center; padding: 20px; background-color: lightgray;"">
        The content of audio is_<strong>crab</strong>_ 
        </p>
    <p style=""width: 100%""> 
    Press <span style=""background-color: yellow;"">[ F ] key</span> if the accents are different. Press <span style=""background-color: yellow;"">[ J ] key</span> if the accents are the same.
    <u>Please press the key accordingly.</u>
    </p>",,,,,,,,,,,,word,,81,KK,j,PBK,crab,stimuli/word/FAS_K7M-PBKW-02-31.wav,stimuli/word/FAS_K9M-PBKW-02-31.wav
html-keyboard-response,198,266356,0.0-12.0-0.19,,,,,,null,null,"<h1 style= ""font-size: 50px"">+
    </h1>",,,,,,,,,,,,,,,,,,,,
html-keyboard-response,199,266862,0.0-12.0-1.19,,,,,,null,null,"
            <p style= ""white-space: nowrap;text-align: center; padding: 20px; background-color: lightgray;"">
            The content of this audio is _<strong>white</strong>_ 
            </p>",,,,,,,,,,,,,,,,,,,,
audio-keyboard-response,200,267589,0.0-12.0-2.19,,,,,,null,null,stimuli/word/FAS_K9M-LNTW-02-25.wav,,,,,,,,,,,,,,,,,,,,
html-keyboard-response,201,268092,0.0-12.0-3.19,,,,,,null,null,"
        <p style= ""white-space: nowrap;text-align: center; padding: 20px; background-color: lightgray;"">
        The content of this audio is _<strong>white</strong>_ 
        </p>",,,,,,,,,,,,,,,,,,,,
audio-keyboard-response,202,268789,0.0-12.0-4.19,,,,,,null,null,stimuli/word/FAS_M6M-LNTW-02-25.wav,,,,,,,,,,,,,,,,,,,,
html-keyboard-response,203,269248,0.0-12.0-5.19,,,,,,457,j,"
        <p style= ""white-space: nowrap;text-align: center; padding: 20px; background-color: lightgray;"">
        The content of audio is_<strong>white</strong>_ 
        </p>
    <p style=""width: 100%""> 
    Press <span style=""background-color: yellow;"">[ F ] key</span> if the accents are different. Press <span style=""background-color: yellow;"">[ J ] key</span> if the accents are the same.
    <u>Please press the key accordingly.</u>
    </p>",,,,,,,,,,,,word,,175,MK,f,LNT,white,stimuli/word/FAS_K9M-LNTW-02-25.wav,stimuli/word/FAS_M6M-LNTW-02-25.wav
html-keyboard-response,204,270257,0.0-12.0-0.20,,,,,,null,null,"<h1 style= ""font-size: 50px"">+
    </h1>",,,,,,,,,,,,,,,,,,,,
html-keyboard-response,205,270772,0.0-12.0-1.20,,,,,,null,null,"
            <p style= ""white-space: nowrap;text-align: center; padding: 20px; background-color: lightgray;"">
            The content of this audio is _<strong>home</strong>_ 
            </p>",,,,,,,,,,,,,,,,,,,,
audio-keyboard-response,206,271510,0.0-12.0-2.20,,,,,,null,null,stimuli/word/FAS_M6M-LNTW-01-11.wav,,,,,,,,,,,,,,,,,,,,
html-keyboard-response,207,272027,0.0-12.0-3.20,,,,,,null,null,"
        <p style= ""white-space: nowrap;text-align: center; padding: 20px; background-color: lightgray;"">
        The content of this audio is _<strong>home</strong>_ 
        </p>",,,,,,,,,,,,,,,,,,,,
audio-keyboard-response,208,272629,0.0-12.0-4.20,,,,,,null,null,stimuli/word/FAS_E5M-LNTW-01-11.wav,,,,,,,,,,,,,,,,,,,,
html-keyboard-response,209,273621,0.0-12.0-5.20,,,,,,990,j,"
        <p style= ""white-space: nowrap;text-align: center; padding: 20px; background-color: lightgray;"">
        The content of audio is_<strong>home</strong>_ 
        </p>
    <p style=""width: 100%""> 
    Press <span style=""background-color: yellow;"">[ F ] key</span> if the accents are different. Press <span style=""background-color: yellow;"">[ J ] key</span> if the accents are the same.
    <u>Please press the key accordingly.</u>
    </p>",,,,,,,,,,,,word,,111,EM,f,LNT,home,stimuli/word/FAS_M6M-LNTW-01-11.wav,stimuli/word/FAS_E5M-LNTW-01-11.wav
html-keyboard-response,210,274627,0.0-12.0-0.21,,,,,,null,null,"<h1 style= ""font-size: 50px"">+
    </h1>",,,,,,,,,,,,,,,,,,,,
html-keyboard-response,211,275129,0.0-12.0-1.21,,,,,,null,null,"
            <p style= ""white-space: nowrap;text-align: center; padding: 20px; background-color: lightgray;"">
            The content of this audio is _<strong>toy</strong>_ 
            </p>",,,,,,,,,,,,,,,,,,,,
audio-keyboard-response,212,275829,0.0-12.0-2.21,,,,,,null,null,stimuli/word/FAS_K9M-LNTW-02-31.wav,,,,,,,,,,,,,,,,,,,,
html-keyboard-response,213,276345,0.0-12.0-3.21,,,,,,null,null,"
        <p style= ""white-space: nowrap;text-align: center; padding: 20px; background-color: lightgray;"">
        The content of this audio is _<strong>toy</strong>_ 
        </p>",,,,,,,,,,,,,,,,,,,,
audio-keyboard-response,214,277029,0.0-12.0-4.21,,,,,,null,null,stimuli/word/FAS_J1M-LNTW-02-31.wav,,,,,,,,,,,,,,,,,,,,
html-keyboard-response,215,279769,0.0-12.0-5.21,,,,,,2740,f,"
        <p style= ""white-space: nowrap;text-align: center; padding: 20px; background-color: lightgray;"">
        The content of audio is_<strong>toy</strong>_ 
        </p>
    <p style=""width: 100%""> 
    Press <span style=""background-color: yellow;"">[ F ] key</span> if the accents are different. Press <span style=""background-color: yellow;"">[ J ] key</span> if the accents are the same.
    <u>Please press the key accordingly.</u>
    </p>",,,,,,,,,,,,word,,181,JK,f,LNT,toy,stimuli/word/FAS_K9M-LNTW-02-31.wav,stimuli/word/FAS_J1M-LNTW-02-31.wav
html-keyboard-response,216,280776,0.0-12.0-0.22,,,,,,null,null,"<h1 style= ""font-size: 50px"">+
    </h1>",,,,,,,,,,,,,,,,,,,,
html-keyboard-response,217,281290,0.0-12.0-1.22,,,,,,null,null,"
            <p style= ""white-space: nowrap;text-align: center; padding: 20px; background-color: lightgray;"">
            The content of this audio is _<strong>kick</strong>_ 
            </p>",,,,,,,,,,,,,,,,,,,,
audio-keyboard-response,218,281970,0.0-12.0-2.22,,,,,,null,null,stimuli/word/FAS_K7M-LNTW-01-39.wav,,,,,,,,,,,,,,,,,,,,
html-keyboard-response,219,282472,0.0-12.0-3.22,,,,,,null,null,"
        <p style= ""white-space: nowrap;text-align: center; padding: 20px; background-color: lightgray;"">
        The content of this audio is _<strong>kick</strong>_ 
        </p>",,,,,,,,,,,,,,,,,,,,
audio-keyboard-response,220,283049,0.0-12.0-4.22,,,,,,null,null,stimuli/word/FAS_E5M-LNTW-01-39.wav,,,,,,,,,,,,,,,,,,,,
html-keyboard-response,221,287749,0.0-12.0-5.22,,,,,,4698,j,"
        <p style= ""white-space: nowrap;text-align: center; padding: 20px; background-color: lightgray;"">
        The content of audio is_<strong>kick</strong>_ 
        </p>
    <p style=""width: 100%""> 
    Press <span style=""background-color: yellow;"">[ F ] key</span> if the accents are different. Press <span style=""background-color: yellow;"">[ J ] key</span> if the accents are the same.
    <u>Please press the key accordingly.</u>
    </p>",,,,,,,,,,,,word,,139,EK,f,LNT,kick,stimuli/word/FAS_K7M-LNTW-01-39.wav,stimuli/word/FAS_E5M-LNTW-01-39.wav
html-keyboard-response,222,288763,0.0-12.0-0.23,,,,,,null,null,"<h1 style= ""font-size: 50px"">+
    </h1>",,,,,,,,,,,,,,,,,,,,
html-keyboard-response,223,289268,0.0-12.0-1.23,,,,,,null,null,"
            <p style= ""white-space: nowrap;text-align: center; padding: 20px; background-color: lightgray;"">
            The content of this audio is _<strong>cow</strong>_ 
            </p>",,,,,,,,,,,,,,,,,,,,
audio-keyboard-response,224,289829,0.0-12.0-2.23,,,,,,null,null,stimuli/word/FAS_J2M-LNTW-01-25.wav,,,,,,,,,,,,,,,,,,,,
html-keyboard-response,225,290332,0.0-12.0-3.23,,,,,,null,null,"
        <p style= ""white-space: nowrap;text-align: center; padding: 20px; background-color: lightgray;"">
        The content of this audio is _<strong>cow</strong>_ 
        </p>",,,,,,,,,,,,,,,,,,,,
audio-keyboard-response,226,290989,0.0-12.0-4.23,,,,,,null,null,stimuli/word/FAS_E5M-LNTW-01-25.wav,,,,,,,,,,,,,,,,,,,,
html-keyboard-response,227,293006,0.0-12.0-5.23,,,,,,2015,j,"
        <p style= ""white-space: nowrap;text-align: center; padding: 20px; background-color: lightgray;"">
        The content of audio is_<strong>cow</strong>_ 
        </p>
    <p style=""width: 100%""> 
    Press <span style=""background-color: yellow;"">[ F ] key</span> if the accents are different. Press <span style=""background-color: yellow;"">[ J ] key</span> if the accents are the same.
    <u>Please press the key accordingly.</u>
    </p>",,,,,,,,,,,,word,,125,EJ,f,LNT,cow,stimuli/word/FAS_J2M-LNTW-01-25.wav,stimuli/word/FAS_E5M-LNTW-01-25.wav
html-keyboard-response,228,294023,0.0-12.0-0.24,,,,,,null,null,"<h1 style= ""font-size: 50px"">+
    </h1>",,,,,,,,,,,,,,,,,,,,
html-keyboard-response,229,294531,0.0-12.0-1.24,,,,,,null,null,"
            <p style= ""white-space: nowrap;text-align: center; padding: 20px; background-color: lightgray;"">
            The content of this audio is _<strong>hi</strong>_ 
            </p>",,,,,,,,,,,,,,,,,,,,
audio-keyboard-response,230,295150,0.0-12.0-2.24,,,,,,null,null,stimuli/word/FAS_K9M-LNTW-01-33.wav,,,,,,,,,,,,,,,,,,,,
html-keyboard-response,231,295666,0.0-12.0-3.24,,,,,,null,null,"
        <p style= ""white-space: nowrap;text-align: center; padding: 20px; background-color: lightgray;"">
        The content of this audio is _<strong>hi</strong>_ 
        </p>",,,,,,,,,,,,,,,,,,,,
audio-keyboard-response,232,296389,0.0-12.0-4.24,,,,,,null,null,stimuli/word/FAS_E1M-LNTW-01-33.wav,,,,,,,,,,,,,,,,,,,,
html-keyboard-response,233,298547,0.0-12.0-5.24,,,,,,2156,f,"
        <p style= ""white-space: nowrap;text-align: center; padding: 20px; background-color: lightgray;"">
        The content of audio is_<strong>hi</strong>_ 
        </p>
    <p style=""width: 100%""> 
    Press <span style=""background-color: yellow;"">[ F ] key</span> if the accents are different. Press <span style=""background-color: yellow;"">[ J ] key</span> if the accents are the same.
    <u>Please press the key accordingly.</u>
    </p>",,,,,,,,,,,,word,,133,EK,f,LNT,hi,stimuli/word/FAS_K9M-LNTW-01-33.wav,stimuli/word/FAS_E1M-LNTW-01-33.wav
html-keyboard-response,234,299562,0.0-12.0-0.25,,,,,,null,null,"<h1 style= ""font-size: 50px"">+
    </h1>",,,,,,,,,,,,,,,,,,,,
html-keyboard-response,235,300078,0.0-12.0-1.25,,,,,,null,null,"
            <p style= ""white-space: nowrap;text-align: center; padding: 20px; background-color: lightgray;"">
            The content of this audio is _<strong>turn</strong>_ 
            </p>",,,,,,,,,,,,,,,,,,,,
audio-keyboard-response,236,300709,0.0-12.0-2.25,,,,,,null,null,stimuli/word/FAS_J2M-PBKW-02-14.wav,,,,,,,,,,,,,,,,,,,,
html-keyboard-response,237,301214,0.0-12.0-3.25,,,,,,null,null,"
        <p style= ""white-space: nowrap;text-align: center; padding: 20px; background-color: lightgray;"">
        The content of this audio is _<strong>turn</strong>_ 
        </p>",,,,,,,,,,,,,,,,,,,,
audio-keyboard-response,238,301969,0.0-12.0-4.25,,,,,,null,null,stimuli/word/FAS_J1M-PBKW-02-14.wav,,,,,,,,,,,,,,,,,,,,
html-keyboard-response,239,302693,0.0-12.0-5.25,,,,,,723,j,"
        <p style= ""white-space: nowrap;text-align: center; padding: 20px; background-color: lightgray;"">
        The content of audio is_<strong>turn</strong>_ 
        </p>
    <p style=""width: 100%""> 
    Press <span style=""background-color: yellow;"">[ F ] key</span> if the accents are different. Press <span style=""background-color: yellow;"">[ J ] key</span> if the accents are the same.
    <u>Please press the key accordingly.</u>
    </p>",,,,,,,,,,,,word,,64,JJ,j,PBK,turn,stimuli/word/FAS_J2M-PBKW-02-14.wav,stimuli/word/FAS_J1M-PBKW-02-14.wav
html-keyboard-response,240,303701,0.0-12.0-0.26,,,,,,null,null,"<h1 style= ""font-size: 50px"">+
    </h1>",,,,,,,,,,,,,,,,,,,,
html-keyboard-response,241,304208,0.0-12.0-1.26,,,,,,null,null,"
            <p style= ""white-space: nowrap;text-align: center; padding: 20px; background-color: lightgray;"">
            The content of this audio is _<strong>splash</strong>_ 
            </p>",,,,,,,,,,,,,,,,,,,,
audio-keyboard-response,242,305090,0.0-12.0-2.26,,,,,,null,null,stimuli/word/FAS_K9M-PBKW-02-25.wav,,,,,,,,,,,,,,,,,,,,
html-keyboard-response,243,305604,0.0-12.0-3.26,,,,,,null,null,"
        <p style= ""white-space: nowrap;text-align: center; padding: 20px; background-color: lightgray;"">
        The content of this audio is _<strong>splash</strong>_ 
        </p>",,,,,,,,,,,,,,,,,,,,
audio-keyboard-response,244,306549,0.0-12.0-4.26,,,,,,null,null,stimuli/word/FAS_K7M-PBKW-02-25.wav,,,,,,,,,,,,,,,,,,,,
html-keyboard-response,245,307185,0.0-12.0-5.26,,,,,,635,f,"
        <p style= ""white-space: nowrap;text-align: center; padding: 20px; background-color: lightgray;"">
        The content of audio is_<strong>splash</strong>_ 
        </p>
    <p style=""width: 100%""> 
    Press <span style=""background-color: yellow;"">[ F ] key</span> if the accents are different. Press <span style=""background-color: yellow;"">[ J ] key</span> if the accents are the same.
    <u>Please press the key accordingly.</u>
    </p>",,,,,,,,,,,,word,,75,KK,j,PBK,splash,stimuli/word/FAS_K9M-PBKW-02-25.wav,stimuli/word/FAS_K7M-PBKW-02-25.wav
html-keyboard-response,246,308191,0.0-12.0-0.27,,,,,,null,null,"<h1 style= ""font-size: 50px"">+
    </h1>",,,,,,,,,,,,,,,,,,,,
html-keyboard-response,247,308708,0.0-12.0-1.27,,,,,,null,null,"
            <p style= ""white-space: nowrap;text-align: center; padding: 20px; background-color: lightgray;"">
            The content of this audio is _<strong>five</strong>_ 
            </p>",,,,,,,,,,,,,,,,,,,,
audio-keyboard-response,248,309490,0.0-12.0-2.27,,,,,,null,null,stimuli/word/FAS_E1M-PBKW-01-12.wav,,,,,,,,,,,,,,,,,,,,
html-keyboard-response,249,310001,0.0-12.0-3.27,,,,,,null,null,"
        <p style= ""white-space: nowrap;text-align: center; padding: 20px; background-color: lightgray;"">
        The content of this audio is _<strong>five</strong>_ 
        </p>",,,,,,,,,,,,,,,,,,,,
audio-keyboard-response,250,310549,0.0-12.0-4.27,,,,,,null,null,stimuli/word/FAS_E5M-PBKW-01-12.wav,,,,,,,,,,,,,,,,,,,,
html-keyboard-response,251,310966,0.0-12.0-5.27,,,,,,415,f,"
        <p style= ""white-space: nowrap;text-align: center; padding: 20px; background-color: lightgray;"">
        The content of audio is_<strong>five</strong>_ 
        </p>
    <p style=""width: 100%""> 
    Press <span style=""background-color: yellow;"">[ F ] key</span> if the accents are different. Press <span style=""background-color: yellow;"">[ J ] key</span> if the accents are the same.
    <u>Please press the key accordingly.</u>
    </p>",,,,,,,,,,,,word,,12,EE,j,PBK,five,stimuli/word/FAS_E1M-PBKW-01-12.wav,stimuli/word/FAS_E5M-PBKW-01-12.wav
html-keyboard-response,252,311969,0.0-12.0-0.28,,,,,,null,null,"<h1 style= ""font-size: 50px"">+
    </h1>",,,,,,,,,,,,,,,,,,,,
html-keyboard-response,253,312484,0.0-12.0-1.28,,,,,,null,null,"
            <p style= ""white-space: nowrap;text-align: center; padding: 20px; background-color: lightgray;"">
            The content of this audio is _<strong>box</strong>_ 
            </p>",,,,,,,,,,,,,,,,,,,,
audio-keyboard-response,254,313249,0.0-12.0-2.28,,,,,,null,null,stimuli/word/FAS_E1M-PBKW-01-20.wav,,,,,,,,,,,,,,,,,,,,
html-keyboard-response,255,313759,0.0-12.0-3.28,,,,,,null,null,"
        <p style= ""white-space: nowrap;text-align: center; padding: 20px; background-color: lightgray;"">
        The content of this audio is _<strong>box</strong>_ 
        </p>",,,,,,,,,,,,,,,,,,,,
audio-keyboard-response,256,314349,0.0-12.0-4.28,,,,,,null,null,stimuli/word/FAS_E5M-PBKW-01-20.wav,,,,,,,,,,,,,,,,,,,,
html-keyboard-response,257,314721,0.0-12.0-5.28,,,,,,371,j,"
        <p style= ""white-space: nowrap;text-align: center; padding: 20px; background-color: lightgray;"">
        The content of audio is_<strong>box</strong>_ 
        </p>
    <p style=""width: 100%""> 
    Press <span style=""background-color: yellow;"">[ F ] key</span> if the accents are different. Press <span style=""background-color: yellow;"">[ J ] key</span> if the accents are the same.
    <u>Please press the key accordingly.</u>
    </p>",,,,,,,,,,,,word,,20,EE,j,PBK,box,stimuli/word/FAS_E1M-PBKW-01-20.wav,stimuli/word/FAS_E5M-PBKW-01-20.wav
html-keyboard-response,258,315732,0.0-12.0-0.29,,,,,,null,null,"<h1 style= ""font-size: 50px"">+
    </h1>",,,,,,,,,,,,,,,,,,,,
html-keyboard-response,259,316239,0.0-12.0-1.29,,,,,,null,null,"
            <p style= ""white-space: nowrap;text-align: center; padding: 20px; background-color: lightgray;"">
            The content of this audio is _<strong>yes</strong>_ 
            </p>",,,,,,,,,,,,,,,,,,,,
audio-keyboard-response,260,317130,0.0-12.0-2.29,,,,,,null,null,stimuli/word/FAS_E1M-PBKW-02-49.wav,,,,,,,,,,,,,,,,,,,,
html-keyboard-response,261,317642,0.0-12.0-3.29,,,,,,null,null,"
        <p style= ""white-space: nowrap;text-align: center; padding: 20px; background-color: lightgray;"">
        The content of this audio is _<strong>yes</strong>_ 
        </p>",,,,,,,,,,,,,,,,,,,,
audio-keyboard-response,262,318330,0.0-12.0-4.29,,,,,,null,null,stimuli/word/FAS_M1M-PBKW-02-49.wav,,,,,,,,,,,,,,,,,,,,
html-keyboard-response,263,318578,0.0-12.0-5.29,,,,,,246,j,"
        <p style= ""white-space: nowrap;text-align: center; padding: 20px; background-color: lightgray;"">
        The content of audio is_<strong>yes</strong>_ 
        </p>
    <p style=""width: 100%""> 
    Press <span style=""background-color: yellow;"">[ F ] key</span> if the accents are different. Press <span style=""background-color: yellow;"">[ J ] key</span> if the accents are the same.
    <u>Please press the key accordingly.</u>
    </p>",,,,,,,,,,,,word,,99,EM,f,PBK,yes,stimuli/word/FAS_E1M-PBKW-02-49.wav,stimuli/word/FAS_M1M-PBKW-02-49.wav
html-keyboard-response,264,319580,0.0-12.0-0.30,,,,,,null,null,"<h1 style= ""font-size: 50px"">+
    </h1>",,,,,,,,,,,,,,,,,,,,
html-keyboard-response,265,320097,0.0-12.0-1.30,,,,,,null,null,"
            <p style= ""white-space: nowrap;text-align: center; padding: 20px; background-color: lightgray;"">
            The content of this audio is _<strong>find</strong>_ 
            </p>",,,,,,,,,,,,,,,,,,,,
audio-keyboard-response,266,320989,0.0-12.0-2.30,,,,,,null,null,stimuli/word/FAS_M1M-PBKW-02-48.wav,,,,,,,,,,,,,,,,,,,,
html-keyboard-response,267,321492,0.0-12.0-3.30,,,,,,null,null,"
        <p style= ""white-space: nowrap;text-align: center; padding: 20px; background-color: lightgray;"">
        The content of this audio is _<strong>find</strong>_ 
        </p>",,,,,,,,,,,,,,,,,,,,
audio-keyboard-response,268,322309,0.0-12.0-4.30,,,,,,null,null,stimuli/word/FAS_E1M-PBKW-02-48.wav,,,,,,,,,,,,,,,,,,,,
html-keyboard-response,269,322720,0.0-12.0-5.30,,,,,,410,j,"
        <p style= ""white-space: nowrap;text-align: center; padding: 20px; background-color: lightgray;"">
        The content of audio is_<strong>find</strong>_ 
        </p>
    <p style=""width: 100%""> 
    Press <span style=""background-color: yellow;"">[ F ] key</span> if the accents are different. Press <span style=""background-color: yellow;"">[ J ] key</span> if the accents are the same.
    <u>Please press the key accordingly.</u>
    </p>",,,,,,,,,,,,word,,98,EM,f,PBK,find,stimuli/word/FAS_M1M-PBKW-02-48.wav,stimuli/word/FAS_E1M-PBKW-02-48.wav
html-keyboard-response,270,323737,0.0-12.0-0.31,,,,,,null,null,"<h1 style= ""font-size: 50px"">+
    </h1>",,,,,,,,,,,,,,,,,,,,
html-keyboard-response,271,324248,0.0-12.0-1.31,,,,,,null,null,"
            <p style= ""white-space: nowrap;text-align: center; padding: 20px; background-color: lightgray;"">
            The content of this audio is _<strong>fun</strong>_ 
            </p>",,,,,,,,,,,,,,,,,,,,
audio-keyboard-response,272,325088,0.0-12.0-2.31,,,,,,null,null,stimuli/word/FAS_E1M-LNTW-01-35.wav,,,,,,,,,,,,,,,,,,,,
html-keyboard-response,273,325600,0.0-12.0-3.31,,,,,,null,null,"
        <p style= ""white-space: nowrap;text-align: center; padding: 20px; background-color: lightgray;"">
        The content of this audio is _<strong>fun</strong>_ 
        </p>",,,,,,,,,,,,,,,,,,,,
audio-keyboard-response,274,326326,0.0-12.0-4.31,,,,,,null,null,stimuli/word/FAS_K9M-LNTW-01-35.wav,,,,,,,,,,,,,,,,,,,,
html-keyboard-response,275,326722,0.0-12.0-5.31,,,,,,394,j,"
        <p style= ""white-space: nowrap;text-align: center; padding: 20px; background-color: lightgray;"">
        The content of audio is_<strong>fun</strong>_ 
        </p>
    <p style=""width: 100%""> 
    Press <span style=""background-color: yellow;"">[ F ] key</span> if the accents are different. Press <span style=""background-color: yellow;"">[ J ] key</span> if the accents are the same.
    <u>Please press the key accordingly.</u>
    </p>",,,,,,,,,,,,word,,135,EK,f,LNT,fun,stimuli/word/FAS_E1M-LNTW-01-35.wav,stimuli/word/FAS_K9M-LNTW-01-35.wav
html-keyboard-response,276,327736,0.0-12.0-0.32,,,,,,null,null,"<h1 style= ""font-size: 50px"">+
    </h1>",,,,,,,,,,,,,,,,,,,,
html-keyboard-response,277,328240,0.0-12.0-1.32,,,,,,null,null,"
            <p style= ""white-space: nowrap;text-align: center; padding: 20px; background-color: lightgray;"">
            The content of this audio is _<strong>fight</strong>_ 
            </p>",,,,,,,,,,,,,,,,,,,,
audio-keyboard-response,278,329007,0.0-12.0-2.32,,,,,,null,null,stimuli/word/FAS_K7M-LNTW-01-29.wav,,,,,,,,,,,,,,,,,,,,
html-keyboard-response,279,329522,0.0-12.0-3.32,,,,,,null,null,"
        <p style= ""white-space: nowrap;text-align: center; padding: 20px; background-color: lightgray;"">
        The content of this audio is _<strong>fight</strong>_ 
        </p>",,,,,,,,,,,,,,,,,,,,
audio-keyboard-response,280,330187,0.0-12.0-4.32,,,,,,null,null,stimuli/word/FAS_E1M-LNTW-01-29.wav,,,,,,,,,,,,,,,,,,,,
html-keyboard-response,281,330673,0.0-12.0-5.32,,,,,,483,j,"
        <p style= ""white-space: nowrap;text-align: center; padding: 20px; background-color: lightgray;"">
        The content of audio is_<strong>fight</strong>_ 
        </p>
    <p style=""width: 100%""> 
    Press <span style=""background-color: yellow;"">[ F ] key</span> if the accents are different. Press <span style=""background-color: yellow;"">[ J ] key</span> if the accents are the same.
    <u>Please press the key accordingly.</u>
    </p>",,,,,,,,,,,,word,,129,EK,f,LNT,fight,stimuli/word/FAS_K7M-LNTW-01-29.wav,stimuli/word/FAS_E1M-LNTW-01-29.wav
html-keyboard-response,282,331676,0.0-12.0-0.33,,,,,,null,null,"<h1 style= ""font-size: 50px"">+
    </h1>",,,,,,,,,,,,,,,,,,,,
html-keyboard-response,283,332183,0.0-12.0-1.33,,,,,,null,null,"
            <p style= ""white-space: nowrap;text-align: center; padding: 20px; background-color: lightgray;"">
            The content of this audio is _<strong>dance</strong>_ 
            </p>",,,,,,,,,,,,,,,,,,,,
audio-keyboard-response,284,333007,0.0-12.0-2.33,,,,,,null,null,stimuli/word/FAS_J1M-LNTW-01-16.wav,,,,,,,,,,,,,,,,,,,,
html-keyboard-response,285,333515,0.0-12.0-3.33,,,,,,null,null,"
        <p style= ""white-space: nowrap;text-align: center; padding: 20px; background-color: lightgray;"">
        The content of this audio is _<strong>dance</strong>_ 
        </p>",,,,,,,,,,,,,,,,,,,,
audio-keyboard-response,286,334407,0.0-12.0-4.33,,,,,,null,null,stimuli/word/FAS_E1M-LNTW-01-16.wav,,,,,,,,,,,,,,,,,,,,
html-keyboard-response,287,334750,0.0-12.0-5.33,,,,,,341,j,"
        <p style= ""white-space: nowrap;text-align: center; padding: 20px; background-color: lightgray;"">
        The content of audio is_<strong>dance</strong>_ 
        </p>
    <p style=""width: 100%""> 
    Press <span style=""background-color: yellow;"">[ F ] key</span> if the accents are different. Press <span style=""background-color: yellow;"">[ J ] key</span> if the accents are the same.
    <u>Please press the key accordingly.</u>
    </p>",,,,,,,,,,,,word,,116,EJ,f,LNT,dance,stimuli/word/FAS_J1M-LNTW-01-16.wav,stimuli/word/FAS_E1M-LNTW-01-16.wav
html-keyboard-response,288,335757,0.0-12.0-0.34,,,,,,null,null,"<h1 style= ""font-size: 50px"">+
    </h1>",,,,,,,,,,,,,,,,,,,,
html-keyboard-response,289,336262,0.0-12.0-1.34,,,,,,null,null,"
            <p style= ""white-space: nowrap;text-align: center; padding: 20px; background-color: lightgray;"">
            The content of this audio is _<strong>swim</strong>_ 
            </p>",,,,,,,,,,,,,,,,,,,,
audio-keyboard-response,290,337268,0.0-12.0-2.34,,,,,,null,null,stimuli/word/FAS_M6M-LNTW-02-20.wav,,,,,,,,,,,,,,,,,,,,
html-keyboard-response,291,337778,0.0-12.0-3.34,,,,,,null,null,"
        <p style= ""white-space: nowrap;text-align: center; padding: 20px; background-color: lightgray;"">
        The content of this audio is _<strong>swim</strong>_ 
        </p>",,,,,,,,,,,,,,,,,,,,
audio-keyboard-response,292,338607,0.0-12.0-4.34,,,,,,null,null,stimuli/word/FAS_K7M-LNTW-02-20.wav,,,,,,,,,,,,,,,,,,,,
html-keyboard-response,293,338933,0.0-12.0-5.34,,,,,,324,j,"
        <p style= ""white-space: nowrap;text-align: center; padding: 20px; background-color: lightgray;"">
        The content of audio is_<strong>swim</strong>_ 
        </p>
    <p style=""width: 100%""> 
    Press <span style=""background-color: yellow;"">[ F ] key</span> if the accents are different. Press <span style=""background-color: yellow;"">[ J ] key</span> if the accents are the same.
    <u>Please press the key accordingly.</u>
    </p>",,,,,,,,,,,,word,,170,MK,f,LNT,swim,stimuli/word/FAS_M6M-LNTW-02-20.wav,stimuli/word/FAS_K7M-LNTW-02-20.wav
html-keyboard-response,294,339940,0.0-12.0-0.35,,,,,,null,null,"<h1 style= ""font-size: 50px"">+
    </h1>",,,,,,,,,,,,,,,,,,,,
html-keyboard-response,295,340444,0.0-12.0-1.35,,,,,,null,null,"
            <p style= ""white-space: nowrap;text-align: center; padding: 20px; background-color: lightgray;"">
            The content of this audio is _<strong>hurt</strong>_ 
            </p>",,,,,,,,,,,,,,,,,,,,
audio-keyboard-response,296,340987,0.0-12.0-2.35,,,,,,null,null,stimuli/word/FAS_E1M-PBKW-01-18.wav,,,,,,,,,,,,,,,,,,,,
html-keyboard-response,297,341504,0.0-12.0-3.35,,,,,,null,null,"
        <p style= ""white-space: nowrap;text-align: center; padding: 20px; background-color: lightgray;"">
        The content of this audio is _<strong>hurt</strong>_ 
        </p>",,,,,,,,,,,,,,,,,,,,
audio-keyboard-response,298,342147,0.0-12.0-4.35,,,,,,null,null,stimuli/word/FAS_E5M-PBKW-01-18.wav,,,,,,,,,,,,,,,,,,,,
html-keyboard-response,299,343550,0.0-12.0-5.35,,,,,,1402,j,"
        <p style= ""white-space: nowrap;text-align: center; padding: 20px; background-color: lightgray;"">
        The content of audio is_<strong>hurt</strong>_ 
        </p>
    <p style=""width: 100%""> 
    Press <span style=""background-color: yellow;"">[ F ] key</span> if the accents are different. Press <span style=""background-color: yellow;"">[ J ] key</span> if the accents are the same.
    <u>Please press the key accordingly.</u>
    </p>",,,,,,,,,,,,word,,18,EE,j,PBK,hurt,stimuli/word/FAS_E1M-PBKW-01-18.wav,stimuli/word/FAS_E5M-PBKW-01-18.wav
html-keyboard-response,300,344565,0.0-12.0-0.36,,,,,,null,null,"<h1 style= ""font-size: 50px"">+
    </h1>",,,,,,,,,,,,,,,,,,,,
html-keyboard-response,301,345077,0.0-12.0-1.36,,,,,,null,null,"
            <p style= ""white-space: nowrap;text-align: center; padding: 20px; background-color: lightgray;"">
            The content of this audio is _<strong>seed</strong>_ 
            </p>",,,,,,,,,,,,,,,,,,,,
audio-keyboard-response,302,345827,0.0-12.0-2.36,,,,,,null,null,stimuli/word/FAS_J2M-PBKW-03-02.wav,,,,,,,,,,,,,,,,,,,,
html-keyboard-response,303,346340,0.0-12.0-3.36,,,,,,null,null,"
        <p style= ""white-space: nowrap;text-align: center; padding: 20px; background-color: lightgray;"">
        The content of this audio is _<strong>seed</strong>_ 
        </p>",,,,,,,,,,,,,,,,,,,,
audio-keyboard-response,304,347227,0.0-12.0-4.36,,,,,,null,null,stimuli/word/FAS_K7M-PBKW-03-02.wav,,,,,,,,,,,,,,,,,,,,
html-keyboard-response,305,348334,0.0-12.0-5.36,,,,,,1105,j,"
        <p style= ""white-space: nowrap;text-align: center; padding: 20px; background-color: lightgray;"">
        The content of audio is_<strong>seed</strong>_ 
        </p>
    <p style=""width: 100%""> 
    Press <span style=""background-color: yellow;"">[ F ] key</span> if the accents are different. Press <span style=""background-color: yellow;"">[ J ] key</span> if the accents are the same.
    <u>Please press the key accordingly.</u>
    </p>",,,,,,,,,,,,word,,187,JK,f,PBK,seed,stimuli/word/FAS_J2M-PBKW-03-02.wav,stimuli/word/FAS_K7M-PBKW-03-02.wav
html-keyboard-response,306,349340,0.0-12.0-0.37,,,,,,null,null,"<h1 style= ""font-size: 50px"">+
    </h1>",,,,,,,,,,,,,,,,,,,,
html-keyboard-response,307,349851,0.0-12.0-1.37,,,,,,null,null,"
            <p style= ""white-space: nowrap;text-align: center; padding: 20px; background-color: lightgray;"">
            The content of this audio is _<strong>live</strong>_ 
            </p>",,,,,,,,,,,,,,,,,,,,
audio-keyboard-response,308,350486,0.0-12.0-2.37,,,,,,null,null,stimuli/word/FAS_J2M-LNTW-01-17.wav,,,,,,,,,,,,,,,,,,,,
html-keyboard-response,309,351001,0.0-12.0-3.37,,,,,,null,null,"
        <p style= ""white-space: nowrap;text-align: center; padding: 20px; background-color: lightgray;"">
        The content of this audio is _<strong>live</strong>_ 
        </p>",,,,,,,,,,,,,,,,,,,,
audio-keyboard-response,310,351807,0.0-12.0-4.37,,,,,,null,null,stimuli/word/FAS_E1M-LNTW-01-17.wav,,,,,,,,,,,,,,,,,,,,
html-keyboard-response,311,351999,0.0-12.0-5.37,,,,,,191,f,"
        <p style= ""white-space: nowrap;text-align: center; padding: 20px; background-color: lightgray;"">
        The content of audio is_<strong>live</strong>_ 
        </p>
    <p style=""width: 100%""> 
    Press <span style=""background-color: yellow;"">[ F ] key</span> if the accents are different. Press <span style=""background-color: yellow;"">[ J ] key</span> if the accents are the same.
    <u>Please press the key accordingly.</u>
    </p>",,,,,,,,,,,,word,,117,EJ,f,LNT,live,stimuli/word/FAS_J2M-LNTW-01-17.wav,stimuli/word/FAS_E1M-LNTW-01-17.wav
html-keyboard-response,312,353015,0.0-12.0-0.38,,,,,,null,null,"<h1 style= ""font-size: 50px"">+
    </h1>",,,,,,,,,,,,,,,,,,,,
html-keyboard-response,313,353532,0.0-12.0-1.38,,,,,,null,null,"
            <p style= ""white-space: nowrap;text-align: center; padding: 20px; background-color: lightgray;"">
            The content of this audio is _<strong>please</strong>_ 
            </p>",,,,,,,,,,,,,,,,,,,,
audio-keyboard-response,314,354367,0.0-12.0-2.38,,,,,,null,null,stimuli/word/FAS_E1M-PBKW-01-01.wav,,,,,,,,,,,,,,,,,,,,
html-keyboard-response,315,354883,0.0-12.0-3.38,,,,,,null,null,"
        <p style= ""white-space: nowrap;text-align: center; padding: 20px; background-color: lightgray;"">
        The content of this audio is _<strong>please</strong>_ 
        </p>",,,,,,,,,,,,,,,,,,,,
audio-keyboard-response,316,355487,0.0-12.0-4.38,,,,,,null,null,stimuli/word/FAS_E5M-PBKW-01-01.wav,,,,,,,,,,,,,,,,,,,,
html-keyboard-response,317,356094,0.0-12.0-5.38,,,,,,605,j,"
        <p style= ""white-space: nowrap;text-align: center; padding: 20px; background-color: lightgray;"">
        The content of audio is_<strong>please</strong>_ 
        </p>
    <p style=""width: 100%""> 
    Press <span style=""background-color: yellow;"">[ F ] key</span> if the accents are different. Press <span style=""background-color: yellow;"">[ J ] key</span> if the accents are the same.
    <u>Please press the key accordingly.</u>
    </p>",,,,,,,,,,,,word,,1,EE,j,PBK,please,stimuli/word/FAS_E1M-PBKW-01-01.wav,stimuli/word/FAS_E5M-PBKW-01-01.wav
html-keyboard-response,318,357102,0.0-12.0-0.39,,,,,,null,null,"<h1 style= ""font-size: 50px"">+
    </h1>",,,,,,,,,,,,,,,,,,,,
html-keyboard-response,319,357608,0.0-12.0-1.39,,,,,,null,null,"
            <p style= ""white-space: nowrap;text-align: center; padding: 20px; background-color: lightgray;"">
            The content of this audio is _<strong>food</strong>_ 
            </p>",,,,,,,,,,,,,,,,,,,,
audio-keyboard-response,320,358506,0.0-12.0-2.39,,,,,,null,null,stimuli/word/FAS_E1M-LNTW-01-15.wav,,,,,,,,,,,,,,,,,,,,
html-keyboard-response,321,359016,0.0-12.0-3.39,,,,,,null,null,"
        <p style= ""white-space: nowrap;text-align: center; padding: 20px; background-color: lightgray;"">
        The content of this audio is _<strong>food</strong>_ 
        </p>",,,,,,,,,,,,,,,,,,,,
audio-keyboard-response,322,359606,0.0-12.0-4.39,,,,,,null,null,stimuli/word/FAS_J1M-LNTW-01-15.wav,,,,,,,,,,,,,,,,,,,,
html-keyboard-response,323,360057,0.0-12.0-5.39,,,,,,449,j,"
        <p style= ""white-space: nowrap;text-align: center; padding: 20px; background-color: lightgray;"">
        The content of audio is_<strong>food</strong>_ 
        </p>
    <p style=""width: 100%""> 
    Press <span style=""background-color: yellow;"">[ F ] key</span> if the accents are different. Press <span style=""background-color: yellow;"">[ J ] key</span> if the accents are the same.
    <u>Please press the key accordingly.</u>
    </p>",,,,,,,,,,,,word,,115,EJ,f,LNT,food,stimuli/word/FAS_E1M-LNTW-01-15.wav,stimuli/word/FAS_J1M-LNTW-01-15.wav
html-keyboard-response,324,361072,0.0-12.0-0.40,,,,,,null,null,"<h1 style= ""font-size: 50px"">+
    </h1>",,,,,,,,,,,,,,,,,,,,
html-keyboard-response,325,361577,0.0-12.0-1.40,,,,,,null,null,"
            <p style= ""white-space: nowrap;text-align: center; padding: 20px; background-color: lightgray;"">
            The content of this audio is _<strong>hold</strong>_ 
            </p>",,,,,,,,,,,,,,,,,,,,
audio-keyboard-response,326,362366,0.0-12.0-2.40,,,,,,null,null,stimuli/word/FAS_K7M-LNTW-02-21.wav,,,,,,,,,,,,,,,,,,,,
html-keyboard-response,327,362885,0.0-12.0-3.40,,,,,,null,null,"
        <p style= ""white-space: nowrap;text-align: center; padding: 20px; background-color: lightgray;"">
        The content of this audio is _<strong>hold</strong>_ 
        </p>",,,,,,,,,,,,,,,,,,,,
audio-keyboard-response,328,363586,0.0-12.0-4.40,,,,,,null,null,stimuli/word/FAS_M6M-LNTW-02-21.wav,,,,,,,,,,,,,,,,,,,,
html-keyboard-response,329,364516,0.0-12.0-5.40,,,,,,929,j,"
        <p style= ""white-space: nowrap;text-align: center; padding: 20px; background-color: lightgray;"">
        The content of audio is_<strong>hold</strong>_ 
        </p>
    <p style=""width: 100%""> 
    Press <span style=""background-color: yellow;"">[ F ] key</span> if the accents are different. Press <span style=""background-color: yellow;"">[ J ] key</span> if the accents are the same.
    <u>Please press the key accordingly.</u>
    </p>",,,,,,,,,,,,word,,171,MK,f,LNT,hold,stimuli/word/FAS_K7M-LNTW-02-21.wav,stimuli/word/FAS_M6M-LNTW-02-21.wav
html-keyboard-response,330,365525,0.0-12.0-0.41,,,,,,null,null,"<h1 style= ""font-size: 50px"">+
    </h1>",,,,,,,,,,,,,,,,,,,,
html-keyboard-response,331,366030,0.0-12.0-1.41,,,,,,null,null,"
            <p style= ""white-space: nowrap;text-align: center; padding: 20px; background-color: lightgray;"">
            The content of this audio is _<strong>feed</strong>_ 
            </p>",,,,,,,,,,,,,,,,,,,,
audio-keyboard-response,332,366966,0.0-12.0-2.41,,,,,,null,null,stimuli/word/FAS_K7M-PBKW-02-27.wav,,,,,,,,,,,,,,,,,,,,
html-keyboard-response,333,367479,0.0-12.0-3.41,,,,,,null,null,"
        <p style= ""white-space: nowrap;text-align: center; padding: 20px; background-color: lightgray;"">
        The content of this audio is _<strong>feed</strong>_ 
        </p>",,,,,,,,,,,,,,,,,,,,
audio-keyboard-response,334,368246,0.0-12.0-4.41,,,,,,null,null,stimuli/word/FAS_K9M-PBKW-02-27.wav,,,,,,,,,,,,,,,,,,,,
html-keyboard-response,335,368735,0.0-12.0-5.41,,,,,,489,j,"
        <p style= ""white-space: nowrap;text-align: center; padding: 20px; background-color: lightgray;"">
        The content of audio is_<strong>feed</strong>_ 
        </p>
    <p style=""width: 100%""> 
    Press <span style=""background-color: yellow;"">[ F ] key</span> if the accents are different. Press <span style=""background-color: yellow;"">[ J ] key</span> if the accents are the same.
    <u>Please press the key accordingly.</u>
    </p>",,,,,,,,,,,,word,,77,KK,j,PBK,feed,stimuli/word/FAS_K7M-PBKW-02-27.wav,stimuli/word/FAS_K9M-PBKW-02-27.wav
html-keyboard-response,336,369746,0.0-12.0-0.42,,,,,,null,null,"<h1 style= ""font-size: 50px"">+
    </h1>",,,,,,,,,,,,,,,,,,,,
html-keyboard-response,337,370260,0.0-12.0-1.42,,,,,,null,null,"
            <p style= ""white-space: nowrap;text-align: center; padding: 20px; background-color: lightgray;"">
            The content of this audio is _<strong>ride</strong>_ 
            </p>",,,,,,,,,,,,,,,,,,,,
audio-keyboard-response,338,370947,0.0-12.0-2.42,,,,,,null,null,stimuli/word/FAS_M1M-PBKW-01-29.wav,,,,,,,,,,,,,,,,,,,,
html-keyboard-response,339,371459,0.0-12.0-3.42,,,,,,null,null,"
        <p style= ""white-space: nowrap;text-align: center; padding: 20px; background-color: lightgray;"">
        The content of this audio is _<strong>ride</strong>_ 
        </p>",,,,,,,,,,,,,,,,,,,,
audio-keyboard-response,340,372207,0.0-12.0-4.42,,,,,,null,null,stimuli/word/FAS_M6M-PBKW-01-29.wav,,,,,,,,,,,,,,,,,,,,
html-keyboard-response,341,372990,0.0-12.0-5.42,,,,,,782,j,"
        <p style= ""white-space: nowrap;text-align: center; padding: 20px; background-color: lightgray;"">
        The content of audio is_<strong>ride</strong>_ 
        </p>
    <p style=""width: 100%""> 
    Press <span style=""background-color: yellow;"">[ F ] key</span> if the accents are different. Press <span style=""background-color: yellow;"">[ J ] key</span> if the accents are the same.
    <u>Please press the key accordingly.</u>
    </p>",,,,,,,,,,,,word,,29,MM,j,PBK,ride,stimuli/word/FAS_M1M-PBKW-01-29.wav,stimuli/word/FAS_M6M-PBKW-01-29.wav
html-keyboard-response,342,374003,0.0-12.0-0.43,,,,,,null,null,"<h1 style= ""font-size: 50px"">+
    </h1>",,,,,,,,,,,,,,,,,,,,
html-keyboard-response,343,374506,0.0-12.0-1.43,,,,,,null,null,"
            <p style= ""white-space: nowrap;text-align: center; padding: 20px; background-color: lightgray;"">
            The content of this audio is _<strong>beef</strong>_ 
            </p>",,,,,,,,,,,,,,,,,,,,
audio-keyboard-response,344,375347,0.0-12.0-2.43,,,,,,null,null,stimuli/word/FAS_M6M-PBKW-01-41.wav,,,,,,,,,,,,,,,,,,,,
html-keyboard-response,345,375851,0.0-12.0-3.43,,,,,,null,null,"
        <p style= ""white-space: nowrap;text-align: center; padding: 20px; background-color: lightgray;"">
        The content of this audio is _<strong>beef</strong>_ 
        </p>",,,,,,,,,,,,,,,,,,,,
audio-keyboard-response,346,376387,0.0-12.0-4.43,,,,,,null,null,stimuli/word/FAS_M1M-PBKW-01-41.wav,,,,,,,,,,,,,,,,,,,,
html-keyboard-response,347,376982,0.0-12.0-5.43,,,,,,594,f,"
        <p style= ""white-space: nowrap;text-align: center; padding: 20px; background-color: lightgray;"">
        The content of audio is_<strong>beef</strong>_ 
        </p>
    <p style=""width: 100%""> 
    Press <span style=""background-color: yellow;"">[ F ] key</span> if the accents are different. Press <span style=""background-color: yellow;"">[ J ] key</span> if the accents are the same.
    <u>Please press the key accordingly.</u>
    </p>",,,,,,,,,,,,word,,41,MM,j,PBK,beef,stimuli/word/FAS_M6M-PBKW-01-41.wav,stimuli/word/FAS_M1M-PBKW-01-41.wav
html-keyboard-response,348,378001,0.0-12.0-0.44,,,,,,null,null,"<h1 style= ""font-size: 50px"">+
    </h1>",,,,,,,,,,,,,,,,,,,,
html-keyboard-response,349,378507,0.0-12.0-1.44,,,,,,null,null,"
            <p style= ""white-space: nowrap;text-align: center; padding: 20px; background-color: lightgray;"">
            The content of this audio is _<strong>class</strong>_ 
            </p>",,,,,,,,,,,,,,,,,,,,
audio-keyboard-response,350,379387,0.0-12.0-2.44,,,,,,null,null,stimuli/word/FAS_M1M-PBKW-01-37.wav,,,,,,,,,,,,,,,,,,,,
html-keyboard-response,351,379902,0.0-12.0-3.44,,,,,,null,null,"
        <p style= ""white-space: nowrap;text-align: center; padding: 20px; background-color: lightgray;"">
        The content of this audio is _<strong>class</strong>_ 
        </p>",,,,,,,,,,,,,,,,,,,,
audio-keyboard-response,352,380767,0.0-12.0-4.44,,,,,,null,null,stimuli/word/FAS_M6M-PBKW-01-37.wav,,,,,,,,,,,,,,,,,,,,
html-keyboard-response,353,381014,0.0-12.0-5.44,,,,,,245,j,"
        <p style= ""white-space: nowrap;text-align: center; padding: 20px; background-color: lightgray;"">
        The content of audio is_<strong>class</strong>_ 
        </p>
    <p style=""width: 100%""> 
    Press <span style=""background-color: yellow;"">[ F ] key</span> if the accents are different. Press <span style=""background-color: yellow;"">[ J ] key</span> if the accents are the same.
    <u>Please press the key accordingly.</u>
    </p>",,,,,,,,,,,,word,,37,MM,j,PBK,class,stimuli/word/FAS_M1M-PBKW-01-37.wav,stimuli/word/FAS_M6M-PBKW-01-37.wav
html-keyboard-response,354,382026,0.0-12.0-0.45,,,,,,null,null,"<h1 style= ""font-size: 50px"">+
    </h1>",,,,,,,,,,,,,,,,,,,,
html-keyboard-response,355,382539,0.0-12.0-1.45,,,,,,null,null,"
            <p style= ""white-space: nowrap;text-align: center; padding: 20px; background-color: lightgray;"">
            The content of this audio is _<strong>watch</strong>_ 
            </p>",,,,,,,,,,,,,,,,,,,,
audio-keyboard-response,356,383167,0.0-12.0-2.45,,,,,,null,null,stimuli/word/FAS_J1M-LNTW-01-13.wav,,,,,,,,,,,,,,,,,,,,
html-keyboard-response,357,383684,0.0-12.0-3.45,,,,,,null,null,"
        <p style= ""white-space: nowrap;text-align: center; padding: 20px; background-color: lightgray;"">
        The content of this audio is _<strong>watch</strong>_ 
        </p>",,,,,,,,,,,,,,,,,,,,
audio-keyboard-response,358,384527,0.0-12.0-4.45,,,,,,null,null,stimuli/word/FAS_E1M-LNTW-01-13.wav,,,,,,,,,,,,,,,,,,,,
html-keyboard-response,359,385134,0.0-12.0-5.45,,,,,,605,f,"
        <p style= ""white-space: nowrap;text-align: center; padding: 20px; background-color: lightgray;"">
        The content of audio is_<strong>watch</strong>_ 
        </p>
    <p style=""width: 100%""> 
    Press <span style=""background-color: yellow;"">[ F ] key</span> if the accents are different. Press <span style=""background-color: yellow;"">[ J ] key</span> if the accents are the same.
    <u>Please press the key accordingly.</u>
    </p>",,,,,,,,,,,,word,,113,EJ,f,LNT,watch,stimuli/word/FAS_J1M-LNTW-01-13.wav,stimuli/word/FAS_E1M-LNTW-01-13.wav
html-keyboard-response,360,386145,0.0-12.0-0.46,,,,,,null,null,"<h1 style= ""font-size: 50px"">+
    </h1>",,,,,,,,,,,,,,,,,,,,
html-keyboard-response,361,386659,0.0-12.0-1.46,,,,,,null,null,"
            <p style= ""white-space: nowrap;text-align: center; padding: 20px; background-color: lightgray;"">
            The content of this audio is _<strong>put</strong>_ 
            </p>",,,,,,,,,,,,,,,,,,,,
audio-keyboard-response,362,387127,0.0-12.0-2.46,,,,,,null,null,stimuli/word/FAS_E1M-PBKW-01-15.wav,,,,,,,,,,,,,,,,,,,,
html-keyboard-response,363,387645,0.0-12.0-3.46,,,,,,null,null,"
        <p style= ""white-space: nowrap;text-align: center; padding: 20px; background-color: lightgray;"">
        The content of this audio is _<strong>put</strong>_ 
        </p>",,,,,,,,,,,,,,,,,,,,
audio-keyboard-response,364,388147,0.0-12.0-4.46,,,,,,null,null,stimuli/word/FAS_E5M-PBKW-01-15.wav,,,,,,,,,,,,,,,,,,,,
html-keyboard-response,365,388769,0.0-12.0-5.46,,,,,,621,j,"
        <p style= ""white-space: nowrap;text-align: center; padding: 20px; background-color: lightgray;"">
        The content of audio is_<strong>put</strong>_ 
        </p>
    <p style=""width: 100%""> 
    Press <span style=""background-color: yellow;"">[ F ] key</span> if the accents are different. Press <span style=""background-color: yellow;"">[ J ] key</span> if the accents are the same.
    <u>Please press the key accordingly.</u>
    </p>",,,,,,,,,,,,word,,15,EE,j,PBK,put,stimuli/word/FAS_E1M-PBKW-01-15.wav,stimuli/word/FAS_E5M-PBKW-01-15.wav
html-keyboard-response,366,389787,0.0-12.0-0.47,,,,,,null,null,"<h1 style= ""font-size: 50px"">+
    </h1>",,,,,,,,,,,,,,,,,,,,
html-keyboard-response,367,390296,0.0-12.0-1.47,,,,,,null,null,"
            <p style= ""white-space: nowrap;text-align: center; padding: 20px; background-color: lightgray;"">
            The content of this audio is _<strong>green</strong>_ 
            </p>",,,,,,,,,,,,,,,,,,,,
audio-keyboard-response,368,391027,0.0-12.0-2.47,,,,,,null,null,stimuli/word/FAS_M1M-LNTW-02-12.wav,,,,,,,,,,,,,,,,,,,,
html-keyboard-response,369,391531,0.0-12.0-3.47,,,,,,null,null,"
        <p style= ""white-space: nowrap;text-align: center; padding: 20px; background-color: lightgray;"">
        The content of this audio is _<strong>green</strong>_ 
        </p>",,,,,,,,,,,,,,,,,,,,
audio-keyboard-response,370,392177,0.0-12.0-4.47,,,,,,null,null,stimuli/word/FAS_K7M-LNTW-02-12.wav,,,,,,,,,,,,,,,,,,,,
html-keyboard-response,371,393074,0.0-12.0-5.47,,,,,,895,j,"
        <p style= ""white-space: nowrap;text-align: center; padding: 20px; background-color: lightgray;"">
        The content of audio is_<strong>green</strong>_ 
        </p>
    <p style=""width: 100%""> 
    Press <span style=""background-color: yellow;"">[ F ] key</span> if the accents are different. Press <span style=""background-color: yellow;"">[ J ] key</span> if the accents are the same.
    <u>Please press the key accordingly.</u>
    </p>",,,,,,,,,,,,word,,162,MK,f,LNT,green,stimuli/word/FAS_M1M-LNTW-02-12.wav,stimuli/word/FAS_K7M-LNTW-02-12.wav
html-keyboard-response,372,394084,0.0-12.0-0.48,,,,,,null,null,"<h1 style= ""font-size: 50px"">+
    </h1>",,,,,,,,,,,,,,,,,,,,
html-keyboard-response,373,394601,0.0-12.0-1.48,,,,,,null,null,"
            <p style= ""white-space: nowrap;text-align: center; padding: 20px; background-color: lightgray;"">
            The content of this audio is _<strong>freeze</strong>_ 
            </p>",,,,,,,,,,,,,,,,,,,,
audio-keyboard-response,374,395477,0.0-12.0-2.48,,,,,,null,null,stimuli/word/FAS_K9M-PBKW-02-33.wav,,,,,,,,,,,,,,,,,,,,
html-keyboard-response,375,395987,0.0-12.0-3.48,,,,,,null,null,"
        <p style= ""white-space: nowrap;text-align: center; padding: 20px; background-color: lightgray;"">
        The content of this audio is _<strong>freeze</strong>_ 
        </p>",,,,,,,,,,,,,,,,,,,,
audio-keyboard-response,376,396917,0.0-12.0-4.48,,,,,,null,null,stimuli/word/FAS_K7M-PBKW-02-33.wav,,,,,,,,,,,,,,,,,,,,
html-keyboard-response,377,397290,0.0-12.0-5.48,,,,,,371,f,"
        <p style= ""white-space: nowrap;text-align: center; padding: 20px; background-color: lightgray;"">
        The content of audio is_<strong>freeze</strong>_ 
        </p>
    <p style=""width: 100%""> 
    Press <span style=""background-color: yellow;"">[ F ] key</span> if the accents are different. Press <span style=""background-color: yellow;"">[ J ] key</span> if the accents are the same.
    <u>Please press the key accordingly.</u>
    </p>",,,,,,,,,,,,word,,83,KK,j,PBK,freeze,stimuli/word/FAS_K9M-PBKW-02-33.wav,stimuli/word/FAS_K7M-PBKW-02-33.wav
html-keyboard-response,378,398296,0.0-12.0-0.49,,,,,,null,null,"<h1 style= ""font-size: 50px"">+
    </h1>",,,,,,,,,,,,,,,,,,,,
html-keyboard-response,379,398801,0.0-12.0-1.49,,,,,,null,null,"
            <p style= ""white-space: nowrap;text-align: center; padding: 20px; background-color: lightgray;"">
            The content of this audio is _<strong>lost</strong>_ 
            </p>",,,,,,,,,,,,,,,,,,,,
audio-keyboard-response,380,399537,0.0-12.0-2.49,,,,,,null,null,stimuli/word/FAS_M1M-LNTW-01-46.wav,,,,,,,,,,,,,,,,,,,,
html-keyboard-response,381,400051,0.0-12.0-3.49,,,,,,null,null,"
